IPO Status,Ticker Code,Company Name,Sector,Subsector,Listing Board,Final Price (Rp),Return D1,Return D2,Return D3,Return D4,Return D5,Return D6,Return D7,Return from Listing Date,Line of Business,Address,Website,Number of shares offered,% of Total Shares,Participant Admin,Underwriter(s),Book Building Opening,Book Building Closing,Lowest Book Building Price (Rp),Highest Book Building Price (Rp),Opening of Offering Period,Closing of Offering Period,Closing Date,Distribution Date,Listing Date,Warrant per share ratio,Exercise Price (Warrant) (Rp)
Postpone,GWAA,PT Golden Westindo Artajaya Tbk,Consumer Non-Cyclicals Syariah,Food Retail & Distributors,,,,,,,,,,,"Perdagangan Pakan Pembenihan Udang dan Ikan, Pakan Ikan Hias, Peralatan Akuarium dan Pakan Beku Ikan","Puri Indah Financial Tower Lt. 20 Unit 09 – 11 Jl. Puri Lingkar Dalam Blok T.8 RT 001/RW 002, Kembangan Selatan Kec. Kembangan, Kota Jakarta Barat DKI Jakarta 11610",https://www.goldenwestindo.com/,685714300,30.0,AH - SHINHAN SEKURITAS INDONESIA,['AH - SHINHAN SEKURITAS INDONESIA'],2024-09-10,2024-09-18,100,120,,,,2024-09-11,2024-09-12,0.0,
Closed,PTMR,PT Master Print Tbk,Basic Materials Syariah,Containers & Packaging,,Rp 128,,,,,,,,,Bergerak dalam bidang perdagangan sebagai distributor resmi dan penyewaan barang-barang industri pen,,https://www.masterprint.co.id,435000000,22.81,RG - PROFINDO SEKURITAS INDONESIA,['RG - PROFINDO SEKURITAS INDONESIA'],2024-09-20,2024-09-24,125,135,,,,,08 Oct 2024,0.0,
Closed,VERN,PT Verona Indah Pictures Tbk,Consumer Cyclicals Syariah,Entertainment & Movie Production,,Rp 195,,,,,,,,,"Aktivitas Produksi, Pasca Produksi, serta Distribusi Film, Video, dan Program Televisi oleh Swasta","Graha Arteri Mas , Jalan Panjang No.68, Kav.38-39, Kel. Kedoya Selatan, Kec. Kebon Jeruk, Jakarta Barat, DKI Jakarta",https://www.veronapictures.co.id/,1121650000,23.54,AI - UOB KAY HIAN SEKURITAS,['AI - UOB KAY HIAN SEKURITAS'],2024-09-18,2024-09-25,190,195,,,,,08 Oct 2024,0.5,216.0
Closed,NEST,PT Esta Indonesia Tbk,Consumer Non-Cyclicals Syariah,"Fish, Meat, & Poultry",Pengembangan,Rp 200,0.35,0.007407407407407408,0.07352941176470588,-0.0547945205479452,-0.050724637681159424,0.0916030534351145,-0.04195804195804196,0.75,Bergerak dalam bidang Pembibitan dan Budidaya Burung Walet dan Perdagangan Besar Sarang Burung Walet,"Terboyo Industri II/2, Terboyo Megah Industri, Semarang 50112 - Indonesia",https://www.estaindonesia.co.id,822500000,20.0,HD - KGI SEKURITAS INDONESIA,['HD - KGI SEKURITAS INDONESIA'],2024-07-22,2024-07-24,160,200,2024-08-01,2024-08-06,2024-08-06,2024-08-07,08 Aug 2024,0.0,
Closed,DOSS,PT Global Sukses Digital Tbk,Consumer Cyclicals Syariah,Electronics Retail,Pengembangan,Rp 135,0.34814814814814815,0.34065934065934067,0.040983606557377046,-0.05511811023622047,-0.025,-0.017094017094017096,-0.008695652173913044,0.43703703703703706,Perdagangan Eceran Alat Fotografi dan Perlengkapannya,"Jl. Tebah No. 4., Kel. Gunung, Kec. Kebayoran Baru, Jakarta Selatan",https://www.globalsuksesdigital.com,450000000,26.09,IF - SAMUEL SEKURITAS INDONESIA,['IF - SAMUEL SEKURITAS INDONESIA'],2024-07-22,2024-07-26,130,135,2024-08-01,2024-08-05,2024-08-05,2024-08-06,07 Aug 2024,0.0,
Closed,LABS,PT UBC Medical Indonesia Tbk,Healthcare Syariah,Healthcare Equipment,Pengembangan,Rp 102,0.3431372549019608,0.34306569343065696,0.06521739130434782,-0.1326530612244898,0.058823529411764705,-0.044444444444444446,0.0,0.4411764705882353,Distributor Alat Kesehatan,"Kawasan Industri Pulogadung, Jl. Rawagelam V, Blok L, No Kav 11-13, Kel. Jatinegara Kec. Cakung Jakarta Timur, Jakarta",https://www.ubcindonesia.com,700000000,18.0,YJ - LOTUS ANDALAN SEKURITAS,['YJ - LOTUS ANDALAN SEKURITAS'],2024-06-19,2024-06-26,100,105,2024-07-02,2024-07-08,2024-07-08,2024-07-09,10 Jul 2024,0.0,
Closed,GOLF,PT Intra GolfLink Resorts Tbk,Consumer Cyclicals Syariah,Recreational & Sports Facilities,Utama,Rp 200,0.35,0.007407407407407408,-0.11764705882352941,0.0,-0.041666666666666664,-0.05217391304347826,0.027522935779816515,0.12,"Bergerak Dalam Bidang Jasa Konsultasi Manajemen dan Pengelolaan Lapangan Golf, Pengembangan Properti","Desa Kadumanggu, Kecamatan Madang Bogor 16810 – Jawa Barat",https://www.golflinkresorts.co.id/id,1950000000,10.0,IF - SAMUEL SEKURITAS INDONESIA,"['IF - SAMUEL SEKURITAS INDONESIA', 'CP - KB VALBURY SEKURITAS', 'LG - TRIMEGAH SEKURITAS INDONESIA TBK.', 'MG - SEMESTA INDOVEST SEKURITAS']",2024-06-20,2024-06-25,200,230,2024-07-02,2024-07-04,2024-07-04,2024-07-05,08 Jul 2024,0.0,
Closed,GUNA,PT. Gunanusa Eramandiri Tbk.,Consumer Non-Cyclicals,Processed Foods,Pengembangan,Rp 150,0.3466666666666667,0.24752475247524752,0.24603174603174602,-0.050955414012738856,-0.020134228187919462,0.0547945205479452,-0.03896103896103896,1.0666666666666667,"Industri makanan dari kedele dan kacang-kacangan lainnya bukan kecap, tempe dan tahu","Kawasan Industri BIIE Hyundai Jl. Inti I Kav. 3 No. 3 Kelurahan Cibatu, Kecamatan Cikarang Selatan, Kabupaten Bekasi, Provinsi Jawa Barat 17550",https://www.gunanusaeramandiri.com,5.000.000 Lot,20%,GR - PANIN SEKURITAS TBK.,GR - PANIN SEKURITAS TBK.,2024-06-20,2024-06-26,100,150,2024-07-02,2024-07-05,2024-07-05,2024-07-08,09 Jul 2024,0.0,
Closed,BLES,PT Superior Prima Sukses Tbk,Basic Materials Syariah,Construction Materials,Utama,Rp 183,0.3442622950819672,0.24390243902439024,-0.10457516339869281,0.0072992700729927005,-0.06521739130434782,-0.03875968992248062,0.024193548387096774,0.3005464480874317,Industri Bata Ringan dan Semen Mortar,,https://superiorprimasukses.com,1313824000,15.0,YJ - LOTUS ANDALAN SEKURITAS,['YJ - LOTUS ANDALAN SEKURITAS'],2024-06-11,2024-06-20,175,185,2024-07-01,2024-07-04,2024-07-04,2024-07-05,08 Jul 2024,0.0,
Closed,ISEA,PT Indo American Seafoods Tbk,Consumer Non-Cyclicals,Processed Foods,Pengembangan,Rp 250,0.248,0.02564102564102564,0.1875,0.23157894736842105,-0.24786324786324787,0.005681818181818182,0.06779661016949153,-0.636,"Industri Pembekuan Biota Air Lainnya, Industri Makanan dan Masakan Olahan, Industri Berbasis Daging","Jl. Ir. Sutami KM 13, Desa Sukanegara, Kecamatan Tanjung Bintang, Kabupaten Lampung Selatan, Provinsi Lampung, Indonesia – 35361.",https://www.indoamericanseafoods.com/,2.900.000 Lot,20.86%,CP - KB VALBURY SEKURITAS,CP - KB VALBURY SEKURITAS,2024-06-14,2024-06-24,220,250,2024-07-01,2024-07-04,2024-07-04,2024-07-05,08 Jul 2024,0.5,Rp 226
Closed,PART,PT Cipta Perdana Lancar Tbk,Consumer Cyclicals,Auto Parts & Equipment,Pengembangan,Rp 105,0.24761904761904763,-0.16030534351145037,0.05454545454545454,0.05172413793103448,0.05737704918032787,-0.007751937984496124,0.0390625,0.3047619047619048,"Perseroan bergerak di bidang Manufaktur Komponen Suku Cadang Otomotif, Elektronik dan Sanitasi","Jl. Prabu Siliwangi KM 0,5 Keroncong, Kec. Jatiuwung, Kota Tangerang Banten 15134",https://www.ciptaperdanalancar.com,6.800.000 Lot,25%,EP - MNC SEKURITAS,EP - MNC SEKURITASAO - ERDIKHA ELIT SEKURITASCP - KB VALBURY SEKURITAS,2024-06-14,2024-06-24,100,105,2024-07-01,2024-07-03,2024-07-03,2024-07-04,05 Jul 2024,1.0,Rp 110
Closed,SPRE,PT Soraya Berjaya Indonesia Tbk,Consumer Cyclicals Syariah,Apparel & Textile Retail,Akselerasi,Rp 125,0.096,0.0948905109489051,-0.02666666666666667,0.0958904109589041,0.1,0.09659090909090909,0.09844559585492228,0.528,industri dan perdagangan barang jadi keperluan rumah tangga,"Jl. Bandes, Keluarahan Aie Pacah, Kecamatan Koto Tangah, Kota Padang, Sumatera Barat 25176",https://sorayaberjaya.id/,240000000,30.0,EP - MNC SEKURITAS,['EP - MNC SEKURITAS'],2024-06-10,2024-06-12,120,130,2024-06-27,2024-07-01,2024-07-01,2024-07-02,03 Jul 2024,0.0,
Closed,BATR,PT Benteng Api Technic Tbk,Basic Materials Syariah,Construction Materials,Pengembangan,Rp 110,0.09090909090909091,-0.06666666666666667,-0.13392857142857142,0.05154639175257732,-0.12745098039215685,-0.056179775280898875,0.10714285714285714,-0.2818181818181818,Manufaktur & Perdagangan produk Refraktori (Material Tahan Api) dan Insulasi Tahan Panas beserta J,"Jl. Kebraon II No. 103 A, Surabaya, Jawa Timur 60222",https://bentengapi.com/,620000000,21.0,HD - KGI SEKURITAS INDONESIA,['HD - KGI SEKURITAS INDONESIA'],2024-05-17,2024-05-21,100,115,2024-06-03,2024-06-06,2024-06-06,2024-06-07,10 Jun 2024,1.0,300.0
Closed,SOLA,PT Xolare RCR Energy Tbk,Basic Materials Syariah,Construction Materials,Pengembangan,Rp 110,0.34545454545454546,-0.02027027027027027,0.296551724137931,0.3404255319148936,-0.25,-0.3492063492063492,-0.34959349593495936,-0.5454545454545454,"Perdagangan Aspal, Industri Pengolahan Aspal dan Jasa Konstruksi","Gedung Plaza Simatupang Lt. 6, Jl. TB Simatupang Kav. IS No. 01 Pondok Pinang, Kebayoran Lama, Jakarta Selatan, DKI Jakarta 12310",https://www.xolare.co.id/,656250000,20.0,AI - UOB KAY HIAN SEKURITAS,['AI - UOB KAY HIAN SEKURITAS'],2024-04-16,2024-04-19,100,110,2024-05-02,2024-05-06,2024-05-06,2024-05-07,08 May 2024,0.0,
Closed,DATA,PT Remala Abadi Tbk,Technology Syariah,IT Services & Consulting,Pengembangan,Rp 188,0.3404255319148936,0.24603174603174602,0.14012738853503184,0.1452513966480447,0.06341463414634146,-0.13761467889908258,-0.12234042553191489,2.4574468085106385,"ISP, jaringan tetap berbasis kabel/tanpa kabel, dan konsultasi IT","Graha Mustika Ratu Jalan Gatot Subroto No.74-75, Jakarta Selatan DKI Jakarta 12870",https://remala.id,275000000,20.0,AI - UOB KAY HIAN SEKURITAS,['AI - UOB KAY HIAN SEKURITAS'],2024-04-05,2024-04-22,188,208,2024-04-29,2024-05-03,2024-05-03,2024-05-06,07 May 2024,0.0,
Closed,MHKI,PT Multi Hanna Kreasindo Tbk,Industrials Syariah,Environmental & Facilities Services,Pengembangan,Rp 160,0.35,0.25,0.24444444444444444,0.21428571428571427,-0.25,0.09803921568627451,0.13690476190476192,-0.16875,Pengelolaan (treatment) Limbah Bahan Berbahaya dan Beracun (B3) dan Non B3 serta Perdagangan Besar,"Jl. Raya Narogong Km 12, Pangkalan II No. 23, Cikiwul Kec. Bantar Gebang, Kota Bekasi, Jawa Barat 17152 Telepon: +62 21 8250196 Fax: +62 21 82601939",https://www.multihanna.co.id/,750000000,20.0,XA - NH KORINDO SEKURITAS INDONESIA,['XA - NH KORINDO SEKURITAS INDONESIA'],2024-03-20,2024-03-22,160,200,2024-04-02,2024-04-04,2024-04-04,2024-04-05,16 Apr 2024,0.0,
Closed,ATLA,PT Atlantis Subsea Indonesia Tbk,Energy Syariah,"Oil, Gas & Coal Equipment & Services",Pengembangan,Rp 100,0.35,0.34814814814814815,0.34065934065934067,-0.13114754098360656,0.24528301886792453,-0.25,0.12121212121212122,-0.5,Bergerak dalam Bidang Survei dan Layanan untuk Perusahaan Energi,,https://www.atlantissubsea.com,1200000000,19.0,SH - ARTHA SEKURITAS INDONESIA,['SH - ARTHA SEKURITAS INDONESIA'],2024-03-19,2024-03-22,100,120,2024-04-02,2024-04-04,2024-04-04,2024-04-05,16 Apr 2024,1.45,300.0
Closed,AREA,PT Dunia Virtual Online Tbk,Technology,IT Services & Consulting,Pengembangan,Rp 131,0.061068702290076333,-0.22302158273381295,-0.07407407407407407,0.16,-0.02586206896551724,-0.017699115044247787,0.0,0.816793893129771,Jasa penyewaan colocation dan aktivitas terkait lainnya,"Jl. Raya Tapos No.31 Cimpaeun, Kec. Tapos, Kota Depok Jawa Barat 16459",https://www.area31.id,5.100.000 Lot,20.08%,GR - PANIN SEKURITAS TBK.,GR - PANIN SEKURITAS TBK.,2024-03-05,2024-03-13,121,131,2024-03-21,2024-03-27,2024-03-27,2024-03-28,01 Apr 2024,0.0,
Canceled,CABR-C1,PT Cahaya Bumi Rezeki Tbk,Basic Materials,Diversified Forest,,,,,,,,,,,Bergerak Dalam Jasa Penunjang Pertanian Lainnya,"Sentra Industri Terpadu Blok E2 nomor 18 Jl. Pantai Indah Selatan Jakarta - Indonesia, 14470",https://www.cahayabumirezeki.com,300000000,23.0,AH - SHINHAN SEKURITAS INDONESIA,['AH - SHINHAN SEKURITAS INDONESIA'],2024-03-19,2024-03-21,95,100,,,,,,0.0,
Closed,VISI,PT Satu Visi Putra Tbk,Consumer Discretionary,Office Supplies,Pengembangan,Rp 120,0.275,-0.1830065359477124,-0.104,0.17857142857142858,-0.06818181818181818,-0.016260162601626018,0.03305785123966942,1.0666666666666667,"Perdagangan Besar untuk Bahan Advertising dan Printing seperti Banner, Display, Tinta dan PVC Board","Jl. Greges Jaya II Blok B19 Kec. Asemrowo, Kel. Tambak Sarioso Kota Surabaya, Jawa Timur 60184",https://satuvisiputra.com/id/,6.150.000 Lot,20%,SF - SURYA FAJAR SEKURITAS,SF - SURYA FAJAR SEKURITAS,2024-01-29,2024-02-05,110,120,2024-02-21,2024-02-23,2024-02-23,2024-02-26,27 Feb 2024,0.0,
Closed,BAIK,PT Bersama Mencapai Puncak Tbk,Energy,Restaurants,Pengembangan,Rp 278,-0.2446043165467626,-0.24761904761904763,-0.0759493670886076,-0.0958904109589041,-0.06818181818181818,-0.13008130081300814,-0.056074766355140186,-0.7446043165467626,"Mengelola rumah makan, kemitraan rumah makan, serta perdagangan bahan baku","Jl. Raya Regency Kav. 9 No. 5, Kabupaten Malang, Jawa Timur, 65153.",https://ptbersamamencapaipuncak.com/,2.250.000 Lot,20%,EP - MNC SEKURITAS,EP - MNC SEKURITASHD - KGI SEKURITAS INDONESIA,2024-01-19,2024-01-24,268,278,2024-02-02,2024-02-12,2024-02-12,2024-02-13,15 Feb 2024,1.0,Rp 400
Closed,HYGN,PT Ecocare Indo Pasifik Tbk,Consumer Discretionary,Environmental & Facilities Services,Pengembangan,Rp 145,0.13793103448275862,-0.14545454545454545,0.10638297872340426,0.08974358974358974,0.023529411764705882,0.0,0.022988505747126436,-0.0896551724137931,Jasa Pengelolaan dan Penyewaan alat-alat Higienitas dan Sanitasi Ruangan beserta produk pendukungnya,"Gedung Infinia Park, Jl. Dr. Saharjo No. 45 Blok A No. 55, Manggarai, Tebet, Jakarta Selatan 12850",https://www.ecocare.id/,5.250.000 Lot,20.79%,HD - KGI SEKURITAS INDONESIA,HD - KGI SEKURITAS INDONESIA,2024-01-19,2024-01-24,135,145,2024-02-01,2024-02-07,2024-02-07,2024-02-12,13 Feb 2024,0.0,
Closed,MEJA,PT Harta Djaya Karya Tbk,Energy,Home Furnishings,Akselerasi,Rp 103,0.0970873786407767,-0.07079646017699115,-0.01904761904761905,-0.019417475728155338,0.06930693069306931,-0.018518518518518517,-0.02830188679245283,0.7184466019417476,"Konsultansi Desain, Pelaksana Konstruksi Interior, Pabrikasi Furnitur","Jl. Bintaro Raya No.8A, Kby. Lama Selatan, Kec. Kby. Lama, Kota Jakarta Selatan, Daerah Khusus Ibukota Jakarta. Kode Pos: 12240",https://interra.co.id/,4.800.000 Lot,25.03%,EP - MNC SEKURITAS,EP - MNC SEKURITASAO - ERDIKHA ELIT SEKURITAS,2024-01-18,2024-01-24,100,103,2024-01-31,2024-02-06,2024-02-06,2024-02-07,12 Feb 2024,1.0,Rp 115
Closed,MKAP,PT Multikarya Asia Pasifik Raya Tbk,Financials,"Oil, Gas & Coal Equipment & Services",Pengembangan,Rp 115,0.34782608695652173,0.3419354838709677,0.17307692307692307,0.00819672131147541,0.016260162601626018,0.024,-0.0546875,2.0782608695652174,"Manufaktur, Jasa Perdagangan, Penyewaan, Perbaikan, Suku Cadang Pompa Industri Migas & Pertambangan","Cibis Nine lt 16, JL TB Simatupang No 02, Jakarta Selatan, 12560, Indonesia",https://www.mkapr.co.id/,6.500.000 Lot,20%,YJ - LOTUS ANDALAN SEKURITAS,YJ - LOTUS ANDALAN SEKURITAS,2024-01-18,2024-01-25,105,120,2024-02-02,2024-02-06,2024-02-06,2024-02-07,12 Feb 2024,0.0,
Closed,MPIX,PT Mitra Pedagang Indonesia Tbk,Telecom,Online Applications & Services,Pengembangan,Rp 268,0.2462686567164179,-0.24550898203592814,-0.25,-0.2857142857142857,0.05185185185185185,-0.04225352112676056,-0.007352941176470588,-0.7201492537313433,"Penyedia Platform Digital untuk UMKM, dan E-Commerce.","Ruko Khayangan Residence Blok RA-11, Lantai 2, Jalan Halim Perdana Kusuma, Bangkalan 69119, Jawa Timur",https://www.mpstore.co.id,3.125.000 Lot,20%,DR - RHB SEKURITAS INDONESIA,DR - RHB SEKURITAS INDONESIAHD - KGI SEKURITAS INDONESIA,2024-01-17,2024-01-24,256,268,2024-01-31,2024-02-05,2024-02-05,2024-02-06,07 Feb 2024,0.5,Rp 850
Closed,ALII,PT Ancara Logistics Indonesia Tbk,Financials,,Utama,Rp 272,0.25,0.17647058823529413,0.02,-0.03431372549019608,0.04568527918781726,0.22572815533980584,0.24752475247524752,0.5294117647058824,"Jasa Pengangkutan Laut dan Transshipment, serta Intermediate Stockpile melalui Perusahaan Anak","Bakrie Tower Lantai 15, Komplek Rasuna Epicentrum, Jalan H.R. Rasuna Said, Kelurahan Karet Kuningan, Kecamatan Setiabudi, Kota Administrasi Jakarta Selatan, 12940",https://www.ancaralogistics.co.id,31.651.600 Lot,20%,KI - CIPTADANA SEKURITAS ASIA,KI - CIPTADANA SEKURITAS ASIAIF - SAMUEL SEKURITAS INDONESIA,2024-01-17,2024-01-24,268,278,2024-02-01,2024-02-05,2024-02-05,2024-02-06,07 Feb 2024,0.0,
Closed,LIVE,PT Homeco Victoria Makmur Tbk,Energy,Household Appliances,Pengembangan,Rp 148,0.17567567567567569,-0.05747126436781609,-0.018292682926829267,0.06832298136645963,0.01744186046511628,-0.011428571428571429,-0.017341040462427744,0.2702702702702703,Perdagangan Besar Peralatan dan Perlengkapan Rumah Tangga,"Jl. Kebon Jeruk Raya No. 1A-C, Kel. Kebon Jeruk Kec. Kebon Jeruk, Kota Adm. Jakarta Barat Provinsi DKI Jakarta, 11530, Indonesia",http://www.homeco.co.id,8.083.500 Lot,17.6%,IF - SAMUEL SEKURITAS INDONESIA,IF - SAMUEL SEKURITAS INDONESIAAR - BINAARTHA SEKURITAS,2024-01-19,2024-01-24,136,181,2024-02-02,2024-02-06,2024-02-06,2024-02-07,12 Feb 2024,0.0,
Closed,UNTD,PT Terang Dunia Internusa Tbk.,Energy,Sport Equipment & Hobbies Goods,Pengembangan,Rp 240,-0.03333333333333333,-0.13793103448275862,-0.115,-0.011299435028248588,-0.04,0.21428571428571427,-0.029411764705882353,-0.4666666666666667,Bergerak di Industri Sepeda dan Industri Sepeda Motor Roda Dua dan Tiga.,"Jl. Alam Sutera Boulevard No. kav. 12A, Pakulonan, Kec. Serpong utara, Kota Tangerang Selatan, Banten 15325",https://www.TerangDuniaInternusa.com,16.666.667 Lot,25%,YP - MIRAE ASSET SEKURITAS INDONESIA,YP - MIRAE ASSET SEKURITAS INDONESIAOD - BRI DANAREKSA SEKURITAS,2024-01-11,2024-01-22,170,240,2024-02-01,2024-02-05,2024-02-05,2024-02-06,07 Feb 2024,0.0,
Closed,TOSK,PT Topindo Solusi Komunika Tbk,Telecom,Online Applications & Services,Pengembangan,Rp 125,0.04,-0.13076923076923078,-0.1415929203539823,-0.010309278350515464,-0.03125,-0.07526881720430108,-0.011627906976744186,-0.352,Platform Teknologi untuk Tujuan Komersil,"Jalan P. Diponegoro No. 19, Kel. Pasiran, Kec Singkawang Barat, Kota Singkawang, Prov Kalimantan Barat 79123",https://topindoku.co.id/,8.750.000 Lot,20%,EP - MNC SEKURITAS,EP - MNC SEKURITASAO - ERDIKHA ELIT SEKURITAS,2024-01-15,2024-01-19,115,125,2024-02-01,2024-02-05,2024-02-05,2024-02-06,07 Feb 2024,0.3,Rp 145
Closed,SMGA,PT Sumber Mineral Global Abadi Tbk,Utilities,Diversified Metals & Minerals,Pengembangan,Rp 105,0.34285714285714286,-0.0851063829787234,-0.10077519379844961,0.008620689655172414,-0.017094017094017096,0.0,-0.09565217391304348,-0.1619047619047619,Bergerak dalam bidang Perdagangan Besar Bijih Nikel dan Batubara,"Graha BIP Lantai 2, Jl. Gatot Subroto Kav. 23, Jakarta Selatan 12930, Indonesia",https://www.smgagroup.com,17.500.000 Lot,20%,MI - VICTORIA SEKURITAS INDONESIA,MI - VICTORIA SEKURITAS INDONESIA,2024-01-08,2024-01-11,100,105,2024-01-24,2024-01-26,2024-01-26,2024-01-29,30 Jan 2024,0.0,
Closed,GRPH,PT Griptha Putra Persada Tbk,Energy,"Hotels, Resorts & Cruise Lines",Pengembangan,Rp 103,0.14563106796116504,-0.0847457627118644,-0.07407407407407407,-0.02,-0.12244897959183673,-0.03488372093023256,-0.07228915662650602,-0.5145631067961165,"Bergerak di Bidang Hotel Bintang, Restoran, dan MICE.","Jl. AKBP R. Agil Kusumadya No. 100, Jati Wetan, Kecamatan Jati, Kabupaten Kudus, Jawa Tengah 59346, Indonesia.",https://www.griptha.com,2.000.000 Lot,20%,SA - ELIT SUKSES SEKURITAS,SA - ELIT SUKSES SEKURITAS,2023-12-20,2023-12-28,100,105,2024-01-12,2024-01-16,2024-01-16,2024-01-17,18 Jan 2024,0.0,
Closed,MANG,PT Manggung Polahraya Tbk,Materials,Heavy Constructions & Civil Engineering,Akselerasi,Rp 100,-0.1,-0.1,0.0,-0.18518518518518517,0.09090909090909091,0.09722222222222222,-0.05063291139240506,-0.2,"Jasa Konstruksi Gedung, Pembangunan Infrastruktur Jalan, Produksi Aspal Hot Mix & Beton Ready Mix","Jl. Pondok Pinang Raya No.1, Kebayoran Lama, Jakarta Selatan, DKI Jakarta 12310",https://www.manggungpolahraya.co.id/,7.625.000 Lot,20%,PG - PANCA GLOBAL SEKURITAS,PG - PANCA GLOBAL SEKURITAS,2023-12-14,2023-12-18,90,110,2024-01-03,2024-01-09,2024-01-09,2024-01-10,11 Jan 2024,0.3,Rp 125
Closed,ACRO,PT Samcro Hyosung Adilestari Tbk,Energy,Textiles,Pengembangan,Rp 108,0.3425925925925926,-0.15172413793103448,0.0,-0.08943089430894309,-0.044642857142857144,0.1588785046728972,-0.07258064516129033,-0.25925925925925924,Bergerak dalam industri dan perdagangan Hook dan Loop,"Jl. Raya Serang KM 17,2 Desa Bojong Kecamatan Cikupa, Kabupaten Tangerang Banten, 15710",https://www.samcro.co.id,6.938.280 Lot,20%,AI - KAY HIAN SEKURITAS,AI - KAY HIAN SEKURITAS,2023-12-15,2023-12-22,103,108,2024-01-03,2024-01-09,2024-01-09,2024-01-10,11 Jan 2024,0.33,Rp 186
Closed,MSJA,PT Multi Spunindo Jaya Tbk,Consumer Staples,Personal Care Products,Utama,Rp 300,0.15333333333333332,0.23699421965317918,-0.10747663551401869,0.0,-0.015706806282722512,0.026595744680851064,0.0,0.12,Industri Nonwoven,"Desa Jabaran, Kecamatan Balongbendo, Krian, Sidoarjo, Jawa Timur, Indonesia 61263",https://www.spunindo.com,8.823.529 Lot,15%,OD - BRI DANAREKSA SEKURITAS,OD - BRI DANAREKSA SEKURITASLS - RELIANCE SEKURITAS INDONESIA TBK.,2023-12-18,2023-12-21,250,350,2024-01-03,2024-01-08,2024-01-08,2024-01-09,10 Jan 2024,0.0,
Closed,SMLE,PT Sinergi Multi Lestarindo Tbk,Basic Materials,Basic Chemicals,Pengembangan,175.0,0.3485714285714286,0.2457627118644068,-0.24489795918367346,0.0,-0.17567567567567569,0.01092896174863388,0.032432432432432434,-0.5085714285714286,"Perdagangan Bahan Kimia Khusus untuk Bahan Baku Makanan & Minuman, Perawatan Diri dan Kimia Industri","Business Park Kebon Jeruk Blok I 5-6, Jl. Raya Meruya Illir, Kav.88, Meruya Utara, Kembangan, Jakarta Barat 11620",https://www.ptsml.id,465625000,20.0,EP - MNC SEKURITAS,"['EP - MNC SEKURITAS', 'AO - ERDIKHA ELIT SEKURITAS']",2023-12-15,2023-12-22,175,190,2024-01-03,2024-01-08,2024-01-08,2024-01-09,2024-01-10,0.5,200.0
Closed,NICE,PT Adhi Kartiko Pratama Tbk.,Utilities,Diversified Metals & Minerals,Pengembangan,Rp 438,0.19863013698630136,0.13333333333333333,0.24369747899159663,-0.24324324324324326,0.0,0.24107142857142858,0.10071942446043165,-0.045662100456621,Bergerak dalam Pertambangan Bijih Nikel,"Jalan Sorumba Nomor 80, Desa/Kelurahan Anaiwoi, Kec. Kadia, Kota Kendari, Provinsi Sulawesi Tenggara Indonesia - 93118",https://www.akp.co.id,12.164.040 Lot,20%,AI - KAY HIAN SEKURITAS,AI - KAY HIAN SEKURITASLG - TRIMEGAH SEKURITAS INDONESIA TBK.CP - KB VALBURY SEKURITAS,2023-12-15,2023-12-21,430,530,2024-01-03,2024-01-05,2024-01-05,2024-01-08,09 Jan 2024,0.0,
Closed,CGAS,PT Citra Nusantara Gemilang Tbk,Financials,Oil & Gas Storage & Distribution,Pengembangan,Rp 338,0.2485207100591716,0.018957345971563982,0.22093023255813954,0.24761904761904763,-0.24885496183206107,0.0,0.0975609756097561,-0.650887573964497,Perdagangan dan Distribusi Gas Alam,"Jl. Kalimalang No.126, Tegal Gede, Kelurahan Pasirsari, Kecamatan Cikarang Selatan, Kabupaten Bekasi, Provinsi Jawa Barat 17530 Indonesia",https://cng.co.id/,5.314.290 Lot,30%,PO - PILARMAS INVESTINDO SEKURITAS,PO - PILARMAS INVESTINDO SEKURITAS,2023-12-14,2023-12-19,284,338,2024-01-02,2024-01-04,2024-01-04,2024-01-05,08 Jan 2024,0.5,Rp 306
Closed,ASLI,PT Asri Karya Lestari Tbk,Materials,Heavy Constructions & Civil Engineering,Pengembangan,Rp 100,-0.11,-0.3258426966292135,-0.016666666666666666,-0.03389830508474576,0.07017543859649122,-0.06557377049180328,0.0,-0.5,"Perseroan bergerak dalam bidang General Contractor khususnya pekerjaan pondasi, erection, bekisting","Ruko Sentra Niaga Kalimalang B2 No3 Jl. Jend. Ahmad Yani, Bekasi, Jawa Barat 17144",https://www.asrikaryalestari.co.id,12.500.000 Lot,20%,XA - NH KORINDO SEKURITAS INDONESIA,XA - NH KORINDO SEKURITAS INDONESIA,2023-12-12,2023-12-18,100,130,2023-12-29,2024-01-03,2024-01-03,2024-01-04,05 Jan 2024,0.0,
Closed,SURI,PT Maja Agung Latexindo Tbk,Healthcare,Healthcare Supplies & Distributions,Pengembangan,Rp 170,-0.047058823529411764,0.04938271604938271,-0.029411764705882353,0.03636363636363636,-0.04093567251461988,-0.024390243902439025,0.00625,-0.4411764705882353,Bergerak Dalam Bidang Produsen Sarung Tangan Latex,"Jalan Utama No 98 Desa Pujimulyo, Kecamatan Sunggal, Kabupaten Deli Serdang, Sumatera Utara 20352",https://www.malgloves.com,12.668.750 Lot,20%,AH - SHINHAN SEKURITAS INDONESIA,AH - SHINHAN SEKURITAS INDONESIA,2023-11-13,2023-11-15,160,170,2023-12-01,2023-12-05,2023-12-05,2023-12-06,07 Dec 2023,0.0,
Closed,AYAM,PT Janu Putra Sejahtera Tbk,Consumer Staples,"Fish, Meat, & Poultry",Pengembangan,Rp 100,0.35,-0.21481481481481482,0.009433962264150943,0.0,0.037383177570093455,0.0,0.018018018018018018,0.28,Bergerak dalam bidang usaha Peternakan dan Rumah Potong Ayam,"Ruko Casa Grande No.35, Jl. Ringroad Utara, Maguwoharjo, Depok, Sleman, D.I Yogyakarta",https://januputrasejahtera.com/,8.000.000 Lot,20%,AI - KAY HIAN SEKURITAS,AI - KAY HIAN SEKURITAS,2023-11-10,2023-11-16,100,110,2023-11-24,2023-11-28,2023-11-28,2023-11-29,30 Nov 2023,0.0,
Closed,RGAS,PT Kian Santang Muliatama Tbk,Financials,"Oil, Gas & Coal Equipment & Services",Pengembangan,Rp 120,0.041666666666666664,-0.224,0.010309278350515464,0.07142857142857142,0.047619047619047616,-0.05454545454545454,-0.04807692307692308,-0.26666666666666666,"Perdagangan Besar Mesin Peralatan dan Perlengkapan Lainnya, Instalasi Mekanikal, Instalasi Gas","Jl. Wibawa Mukti II Perum Telkom Satwika Permai Blok A5 No. 8, RT. 009 RW. 009 Kel. Jatiluhur, Kec. Jatiasih, Bekasi, 17425",https://kianmulia.com/,3.342.000 Lot,22.9%,AO - ERDIKHA ELIT SEKURITAS,AO - ERDIKHA ELIT SEKURITAS,2023-10-16,2023-10-18,115,122,2023-11-02,2023-11-06,2023-11-06,2023-11-07,08 Nov 2023,0.6,Rp 210
Closed,IKPM,PT Ikapharmindo Putramas Tbk,Healthcare,Pharmaceuticals,Pengembangan,Rp 165,0.09696969696969697,-0.06077348066298342,0.011764705882352941,-0.011627906976744186,0.01764705882352941,-0.011560693641618497,-0.011695906432748537,0.806060606060606,"Bergerak Dalam Bidang Usaha Industri Farmasi, Personal Care","Kl. Pulogadung Raya No.29 Kawasan Industri Pulogadung Jakarta Timur, 13930 Indonesia",https://www.ikapharmindo.com,3.369.325 Lot,20%,TP - OCBC SEKURITAS INDONESIA,TP - OCBC SEKURITAS INDONESIA,2023-10-23,2023-10-30,160,180,2023-11-02,2023-11-06,2023-11-06,2023-11-07,08 Nov 2023,0.0,
Closed,MSTI,PT Mastersystem Infotama Tbk.,Telecom,IT Services & Consulting,Utama,Rp 1.355,0.07011070110701106,-0.05517241379310345,0.0,-0.0072992700729927005,0.01838235294117647,-0.01444043321299639,-0.003663003663003663,0.12915129151291513,"Solusi, integrasi dan pemeliharaan sistem teknologi informasi",Gedung Sudirman 7-8 Tower I Lt.25 Jl. Jend. Sudirman Kav. 7-8 Jakarta Pusat 10220,https://www.mastersystem.co.id/,4.708.236 Lot,15%,PD - INDO PREMIER SEKURITAS,PD - INDO PREMIER SEKURITASZP - MAYBANK SEKURITAS INDONESIA,2023-10-20,2023-10-26,1355,1595,2023-11-02,2023-11-06,2023-11-06,2023-11-07,08 Nov 2023,0.0,
Closed,UDNG,PT Agro Bahari Nusantara Tbk,Consumer Staples,"Fish, Meat, & Poultry",Akselerasi,Rp 100,0.1,-0.03636363636363636,-0.09433962264150944,0.0,-0.010416666666666666,-0.010526315789473684,0.0,-0.49,Bergerak di bidang Budidaya Tambak Udang,"Ruko Shibuya Unit SHC 012 – PIK 2 Jl. Marina Indah Raya No.1 Kel. Lemo, Kec. Teluknaga Tangerang – Banten 15510",https://abn.farm/,5.000.000 Lot,28.57%,EP - MNC SEKURITAS,EP - MNC SEKURITASBQ - KOREA INVESTMENT AND SEKURITAS INDONESIA,2023-10-06,2023-10-12,90,100,2023-10-23,2023-10-27,2023-10-27,2023-10-30,31 Oct 2023,0.8,Rp 105
Closed,KOKA,PT Koka Indonesia Tbk,Materials,Heavy Constructions & Civil Engineering,Pengembangan,Rp 128,0.328125,-0.16470588235294117,0.014084507042253521,-0.2569444444444444,0.04672897196261682,0.017857142857142856,-0.06140350877192982,-0.5078125,"Jasa Konstruksi Gedung Industri, Bangunan Sipil dan Gedung Hunian","Jl. Sultan Iskandar Muda, No. 7, Lt. 3, Kebayoran Lama, Jakarta Selatan 12240",https://koka.co.id/en/beranda-en/,7.153.330 Lot,25%,AI - KAY HIAN SEKURITAS,AI - KAY HIAN SEKURITASHD - KGI SEKURITAS INDONESIA,2023-09-19,2023-09-26,128,161,2023-10-03,2023-10-09,2023-10-09,2023-10-10,11 Oct 2023,0.0,
Closed,LOPI,PT Logisticsplus International Tbk,Real Estate,Logistics & Deliveries,Akselerasi,Rp 100,-0.1,-0.1,-0.09876543209876543,0.0821917808219178,0.08860759493670886,0.03488372093023256,-0.02247191011235955,-0.68,Bergerak di Bidang Jasa Pengurusan Transportasi (Freight Forwarding),"SAV Building Jl. Kavling Polri No. 20 Jagakarsa, Jakarta Selatan 12620, Indonesia",https://www.logisticsplus.co.id,3.000.000 Lot,27.27%,SA - ELIT SUKSES SEKURITAS,SA - ELIT SUKSES SEKURITAS,2023-09-20,2023-09-22,100,150,2023-10-03,2023-10-09,2023-10-09,2023-10-10,11 Oct 2023,0.5,Rp 200
Closed,STRK,PT Lovina Beach Brewery Tbk,Consumer Staples,Liquors,Pengembangan,Rp 100,0.35,0.34814814814814815,0.34065934065934067,0.2459016393442623,-0.25,-0.25,0.12280701754385964,-0.5,Bergerak dalam bidang Industri Distribusi Minuman Beralkohol & Pengolahannya melalui Anak perusahaan,"Jl. Tukad Banyu Poh 110 X, Sesetan Denpasar Selatan, 80223",https://lovinabeachbrewery.com/,11.800.000 Lot,11.01%,SH - ARTHA SEKURITAS INDONESIA,SH - ARTHA SEKURITAS INDONESIAHD - KGI SEKURITAS INDONESIAFZ - WATERFRONT SEKURITAS INDONESIAPG - PANCA GLOBAL SEKURITAS,2023-09-06,2023-09-20,100,119,2023-10-03,2023-10-06,2023-10-06,2023-10-09,10 Oct 2023,2.75,Rp 250
Closed,PTPS,PT PULAU SUBUR TBK,Consumer Discretionary,Agricultural & Farm Machinery,Pengembangan,Rp 198,-0.3484848484848485,-0.1937984496124031,0.125,-0.05128205128205128,-0.05405405405405406,0.06666666666666667,-0.026785714285714284,-0.5707070707070707,Perseroan bergerak dalam bidang Perkebunan Buah Kelapa Sawit,"Jl A. Yani No.12 ABC, RT23 RW023 14 Ulu, Seberang Ulu Dua, Palembang",https://www.pulausubur.com,4.500.000 Lot,20.76%,XA - NH KORINDO SEKURITAS INDONESIA,XA - NH KORINDO SEKURITAS INDONESIA,2023-09-20,2023-09-22,198,206,2023-10-03,2023-10-05,2023-10-05,2023-10-06,09 Oct 2023,0.5,Rp 218
Closed,BREN,PT Barito Renewables Energy Tbk,Materials,Electric Utilities,Utama,Rp 780,0.25,0.24615384615384617,0.24691358024691357,0.24752475247524752,0.24867724867724866,0.1652542372881356,0.24727272727272728,8.294871794871796,Aktvitas perusahaan holding,"Wisma Barito Pacific II, Lantai 23, Jl. Let. Jend. S. Parman Kav. 60, RT 010, RW 005, Slipi, Palmerah, Jakarta 11410, Indonesia",https://www.baritorenewables.co.id/,40.150.000 Lot,3%,NI - BNI SEKURITAS,NI - BNI SEKURITASTP - OCBC SEKURITAS INDONESIA,2023-09-18,2023-09-25,670,780,2023-10-03,2023-10-05,2023-10-05,2023-10-06,09 Oct 2023,0.0,
Closed,KOCI,PT Kokoh Exa Nusantara Tbk,Technology,Real Estate Development & Management,Pengembangan,Rp 120,-0.3,-0.19047619047619047,0.1323529411764706,-0.06493506493506493,-0.041666666666666664,-0.028985507246376812,0.029850746268656716,-0.5583333333333333,Konstruksi dan Real Estat,"Jl. Raya Sukolilo, Tebul, Kwanyar, Bangkalan - 69163",https://www.kokohcity.com,4.500.000 Lot,10.19%,PG - PANCA GLOBAL SEKURITAS,PG - PANCA GLOBAL SEKURITAS,2023-09-07,2023-09-12,120,160,2023-09-29,2023-10-04,2023-10-04,2023-10-05,06 Oct 2023,1.0,Rp 135
Closed,IOTF,PT Sumber Sinergi Makmur Tbk,Telecom,Electronic Equipment & Instruments,Pengembangan,Rp 100,0.35,-0.23703703703703705,-0.02912621359223301,-0.01,0.06060606060606061,-0.06666666666666667,0.0,0.38,Distributor dan Instalasi Perangkat Global Positioning System (GPS) untuk Otomotif dan Logistik,"Fox Logger Tower Jl. Cideng Barat nomor 31A, RT. 003/RW. 011, Kelurahan Cideng, Kecamatan Gambir, Jakarta Pusat 10150",https://www.foxlogger.co.id,11.000.000 Lot,20.83%,AH - SHINHAN SEKURITAS INDONESIA,AH - SHINHAN SEKURITAS INDONESIACP - KB VALBURY SEKURITAS,2023-09-14,2023-09-19,100,120,2023-09-29,2023-10-04,2023-10-04,2023-10-05,06 Oct 2023,1.0,Rp 130
Closed,AEGS,PT Anugerah Spareparts Sejahtera Tbk,Energy,Auto Parts & Equipment,Akselerasi,Rp 100,-0.05,-0.09473684210526316,-0.09302325581395349,-0.0641025641025641,-0.0684931506849315,-0.058823529411764705,-0.046875,-0.65,"Industri Filter Kendaraan Bermotor yaitu Filter Oli dan Filter Bahan Bakar, serta Perdagangan Filter","Jalan Soekarno Hatta No. 134, Losari Kidul, Losari, Kab. Cirebon, Jawa Barat 45192",https://www.aegisfilter.co.id,4.000.000 Lot,39.76%,AH - SHINHAN SEKURITAS INDONESIA,AH - SHINHAN SEKURITAS INDONESIA,2023-08-22,2023-08-24,90,100,2023-09-04,2023-09-07,2023-09-07,2023-09-08,11 Sep 2023,0.25,Rp 90
Closed,BABY,PT Multitrend Indo Tbk.,Energy,Apparel & Textile Retail,Pengembangan,Rp 266,0.09022556390977443,-0.06896551724137931,-0.014814814814814815,-0.015037593984962405,-0.007633587786259542,0.06153846153846154,-0.021739130434782608,-0.20300751879699247,Perdagangan Eceran Pakaian dan Mainan Anak,"Gedung Menara Era Lt. 14-02 Jl. Senen Raya No. 135 – 137, Kel. Senen, Kec. Senen, Jakarta Pusat, Provinsi DKI Jakarta, 10410",https://kanmomultitrend.id/,5.340.000 Lot,20.01%,AI - KAY HIAN SEKURITAS,AI - KAY HIAN SEKURITAS,2023-08-14,2023-08-22,250,266,2023-08-31,2023-09-05,2023-09-05,2023-09-06,07 Sep 2023,0.0,
Closed,RSCH,PT Charlie Hospital Semarang Tbk,Healthcare,Healthcare Providers,Pengembangan,Rp 115,0.1391304347826087,0.06870229007633588,-0.04285714285714286,0.014925373134328358,-0.022058823529411766,-0.015037593984962405,-0.015267175572519083,2.2869565217391306,Bergerak di bidang Aktivitas Rumah Sakit Swasta,"Jl. Raya Ngabean Kav 1A, Kel. Ngabean, Kec. Boja Kab. Kendal, Jawa Tengah 51381",https://charliehospital.co.id/,5.300.000 Lot,20%,AH - SHINHAN SEKURITAS INDONESIA,AH - SHINHAN SEKURITAS INDONESIASA - ELIT SUKSES SEKURITAS,2023-08-04,2023-08-08,105,125,2023-08-22,2023-08-24,2023-08-24,2023-08-25,28 Aug 2023,0.0,
Closed,MSIE,PT Multisarana Intan Eduka Tbk,Technology,Real Estate Development & Management,Akselerasi,Rp 100,-0.1,-0.1,-0.09876543209876543,-0.0958904109589041,-0.09090909090909091,-0.016666666666666666,-0.05084745762711865,-0.86,Real estat dan aktivitas penyewaan dan sewa guna usaha tanpa hak opsi,"Jl. Raya Kedung Baruk No. 112 – 114 Penjaringan Sari, Kec. Rungkut, Kota Surabaya, Jawa Timur",https://msie.co.id,3.600.000 Lot,24.66%,EP - MNC SEKURITAS,EP - MNC SEKURITASCP - KB VALBURY SEKURITAS,2023-07-17,2023-07-24,100,110,2023-08-02,2023-08-08,2023-08-08,2023-08-09,10 Aug 2023,0.5,Rp 250
Closed,HUMI,PT Humpuss Maritim Internasional Tbk,Financials,Oil & Gas Storage & Distribution,Utama,Rp 100,0.02,-0.00980392156862745,0.009900990099009901,0.09803921568627451,0.3482142857142857,0.32450331125827814,0.31,-0.41,"Aktivitas Perusahaan Holding, Angkutan Laut dalam Negeri untuk Barang Khusus","Gedung Mangkuluhur City Tower One Lt. 27 Jl. Jend Gatot Subroto Kav 1, Karet Semanggi Setiabudi, Jakarta Selatan. 12930",https://humi.co.id/,27.070.000 Lot,15%,LS - RELIANCE SEKURITAS INDONESIA TBK.,LS - RELIANCE SEKURITAS INDONESIA TBK.,2023-07-18,2023-07-24,100,150,2023-08-02,2023-08-07,2023-08-07,2023-08-08,09 Aug 2023,0.5,Rp 200
Closed,MUTU,PT Mutuagung Lestari Tbk,Consumer Discretionary,Business Support Services,Pengembangan,Rp 108,0.3425925925925926,0.006896551724137931,-0.1095890410958904,-0.038461538461538464,0.064,-0.045112781954887216,0.0,-0.23148148148148148,"Jasa Pengujian, Inspeksi dan Sertifikasi","Jl. Raya Bogor KM 33,5 No. 19 Cimanggis Depok, 16453",https://www.mutucertification.com,9.428.572 Lot,30%,LG - TRIMEGAH SEKURITAS INDONESIA TBK.,LG - TRIMEGAH SEKURITAS INDONESIA TBK.PD - INDO PREMIER SEKURITAS,2023-07-12,2023-07-24,105,110,2023-08-02,2023-08-07,2023-08-07,2023-08-08,09 Aug 2023,0.25,Rp 324
Closed,LMAX,PT Lupromax Pelumas Indonesia Tbk,Energy,Automotive Retail,Akselerasi,Rp 200,0.1,0.01818181818181818,0.08035714285714286,0.09917355371900827,0.09774436090225563,0.0958904109589041,0.1,-0.85,Bergerak dalam bidang usaha Pelumas dan Pelumas Aditif,"Ruko Graha Boulevard Blok A No.15 Jl. Raya Gading Serpong Kec. Kelapa Dua,Tangerang, Banten, Indonesia - 15810",https://lupromax.co.id/,1.950.000 Lot,26.09%,AH - SHINHAN SEKURITAS INDONESIA,AH - SHINHAN SEKURITAS INDONESIA,2023-07-21,2023-07-24,160,200,2023-08-02,2023-08-07,2023-08-07,2023-08-08,09 Aug 2023,0.5,Rp 180
Closed,CYBR,PT ITSEC Asia Tbk,Telecom,IT Services & Consulting,Pengembangan,Rp 100,0.35,0.34814814814814815,0.31868131868131866,0.13333333333333333,-0.14705882352941177,-0.008620689655172414,-0.017391304347826087,2.4,Aktivitas Konsultasi Keamanan Informasi,"Kantor Pusat : Gedung Noble House Lantai 11 Unit 2 & 3 Jl. Dr Ide Anak Agung Gde Agung Kavling E.4.2 No 2, Mega Kuningan Kelurahan Kuningan Timur, Kecamatan Setiabudi Jakarta Selatan, Indonesia 12950",https://www.itsec.asia,10.087.348 Lot,15.64%,YP - MIRAE ASSET SEKURITAS INDONESIA,YP - MIRAE ASSET SEKURITAS INDONESIAAZ - SUCOR SEKURITASLG - TRIMEGAH SEKURITAS INDONESIA TBK.,2023-07-18,2023-07-26,100,110,2023-08-02,2023-08-04,2023-08-04,2023-08-07,08 Aug 2023,0.5,Rp 400
Closed,ERAL,PT Sinar Eka Selaras Tbk,Energy,Electronics Retail,Utama,Rp 390,0.03076923076923077,-0.07960199004975124,0.0,0.010810810810810811,-0.016042780748663103,0.0,0.03260869565217391,-0.30256410256410254,Aktivitas Perdagangan Besar serta Perdagangan Eceran melalui Perusahaan Anak,"Erajaya Plaza Jalan Bandengan Selatan No. 19-20, Kel. Pekojan, Kec. Tambora Kota Jakarta Barat, DKI Jakarta 11240",https://www.ses.id/,10.375.000 Lot,20%,YP - MIRAE ASSET SEKURITAS INDONESIA,YP - MIRAE ASSET SEKURITAS INDONESIANI - BNI SEKURITAS,2023-07-14,2023-07-26,370,410,2023-08-02,2023-08-04,2023-08-04,2023-08-07,08 Aug 2023,0.0,
Closed,PPRI,PT Paperocks Indonesia Tbk.,Utilities,Containers & Packaging,Pengembangan,Rp 140,-0.15,-0.14285714285714285,-0.14705882352941177,-0.034482758620689655,-0.08333333333333333,0.0,0.16883116883116883,-0.29285714285714287,Bergerak Dalam Bidang Perdagangan Besar Barang Dari Kertas Dan Karton,"Ruko Cibubur Times Square Blok C 1 N0. 23, Jalan Alternatif Cibubur RT.001/RW.010, Kelurahan Jatikarya, Kecamatan Jatisampurna, Kota Bekasi, Jawa Barat 17435",https://paperocks.co.id/,2.750.000 Lot,25.58%,IU - INDO CAPITAL SEKURITAS,IU - INDO CAPITAL SEKURITAS,2023-07-20,2023-07-24,130,150,2023-08-02,2023-08-04,2023-08-04,2023-08-07,08 Aug 2023,0.6,Rp 200
Closed,GRIA,PT Ingria Pratama Capitalindo Tbk,Technology,Real Estate Development & Management,Pengembangan,Rp 120,-0.016666666666666666,0.025423728813559324,-0.024793388429752067,-0.01694915254237288,0.017241379310344827,-0.025423728813559324,0.043478260869565216,0.7833333333333333,Real Estat,"Ruko Pondok Cabe Mutiara, Jalan Pondok Cabe Raya No. 27, Kecamatan Pamulang, Tangerang Selatan, Banten 15418.",https://ingriagroup.com/,17.250.000 Lot,23.39%,AO - ERDIKHA ELIT SEKURITAS,AO - ERDIKHA ELIT SEKURITAS,2023-07-20,2023-07-24,115,120,2023-08-02,2023-08-04,2023-08-04,2023-08-07,08 Aug 2023,0.0,
Closed,HBAT,PT Minahasa Membangun Hebat Tbk,Technology,Real Estate Development & Management,Akselerasi,Rp 108,-0.09259259259259259,-0.09183673469387756,-0.0898876404494382,-0.09876543209876543,-0.0821917808219178,-0.08955223880597014,-0.08196721311475409,-0.7037037037037037,Bergerak dalam Bidang Usaha Real Estate,"Perumahan Sawangan Permai Kel. Sawangan, Kec. Tombulu, Kab. Minahasa, Prov. Sulawesi Utara 95663, Indonesia",https://mmhebat.co.id/,2.407.408 Lot,23.13%,YJ - LOTUS ANDALAN SEKURITAS,YJ - LOTUS ANDALAN SEKURITAS,2023-07-12,2023-07-20,100,108,2023-08-01,2023-08-03,2023-08-03,2023-08-04,07 Aug 2023,0.0,
Closed,FOLK,PT Multi Garam Utama Tbk,Consumer Discretionary,,Pengembangan,Rp 100,0.13,-0.1415929203539823,-0.14432989690721648,0.08433734939759036,-0.05555555555555555,0.011764705882352941,-0.06976744186046512,-0.49,Aktivitas Perusahaan Holding dan Aktivitas Konsultasi Manajemen,"Prosperity Tower 17-F District 8, SCBD, Jalan Jenderal Sudirman Kavling 52-53, Kelurahan Senayan, Kec. Kebayoran Baru, Jakarta Selatan, Provinsi DKI Jakarta, 12190",https://folkgroup.co,5.700.000 Lot,14.44%,HD - KGI SEKURITAS INDONESIA,HD - KGI SEKURITAS INDONESIAIF - SAMUEL SEKURITAS INDONESIA,2023-07-20,2023-07-24,100,105,2023-08-01,2023-08-03,2023-08-03,2023-08-04,07 Aug 2023,0.5,Rp 200
Closed,CNMA,PT Nusantara Sejahtera Raya Tbk,Energy,Recreational & Sports Facilities,Utama,Rp 270,0.17037037037037037,-0.006329113924050633,-0.03184713375796178,0.019736842105263157,-0.0064516129032258064,-0.01948051948051948,0.013245033112582781,-0.17777777777777778,Bioskop dan Restoran,Jl. KH Wahid Hasyim No.96-A Jakarta Pusat 10340,https://www.cinema21.co.id,83.350.000 Lot,10%,CC - MANDIRI SEKURITAS,CC - MANDIRI SEKURITASPD - INDO PREMIER SEKURITASBK - J.P. MORGAN SEKURITAS INDONESIAAK - UBS SEKURITAS INDONESIA,2023-07-10,2023-07-14,270,288,2023-07-27,2023-07-31,2023-07-31,2023-08-01,02 Aug 2023,0.0,
Closed,RMKO,PT Royaltama Mulia Kontraktorindo Tbk,Financials,"Oil, Gas & Coal Equipment & Services",Pengembangan,Rp 450,0.24444444444444444,-0.05357142857142857,-0.06415094339622641,0.07862903225806452,0.018691588785046728,-0.06422018348623854,-0.027450980392156862,-0.5288888888888889,Jasa Penunjang Pertambangan dan Jasa Penyewaan Alat-Alat Berat,"Wisma RMK, Jl. Puri Kencana Blok M4 No. 1, Kembangan Selatan, Jakarta Barat 11610",http://www.rmko.co.id/,2.500.000 Lot,20%,MI - VICTORIA SEKURITAS INDONESIA,MI - VICTORIA SEKURITAS INDONESIA,2023-07-10,2023-07-13,350,450,2023-07-25,2023-07-27,2023-07-27,2023-07-28,31 Jul 2023,0.0,
Canceled,ZEUS-C1,PT Zeus Kimiatama Indonesia Tbk,Basic Materials,Specialty Chemicals,,,,,,,,,,,Manufaktur dan Perdagangan Kimia Khusus,"Jl. Sungkai Blok F25 No. 09 IA Delta Silicon V, Kawasan Industri Lippo Cikarang, Kecamatan Cikarang Pusat, Kabupaten Bekasi – Jawa Barat Indonesia – 17530",https://www.zekindo.co.id/,1050000000,21.0,XA - NH KORINDO SEKURITAS INDONESIA,['XA - NH KORINDO SEKURITAS INDONESIA'],2023-07-18,2023-07-26,100,105,,,,,,0.5,
Closed,MAHA,PT Mandiri Herindo Adiperkasa Tbk,Financials,Coal Distribution,Utama,Rp 118,0.3474576271186441,0.34591194968553457,0.0,0.06542056074766354,0.20175438596491227,0.0072992700729927005,-0.007246376811594203,0.5508474576271186,Aktivitas jasa penunjang pertambangan,"Gedung Office 8, Lantai 31 Unit A Jl. Senopati Raya No.8B, SCBD Lot 28, Kav. 52-53 Jakarta 12190, Indonesia",https://www.mha.co.id,41.660.000 Lot,25%,LG - TRIMEGAH SEKURITAS INDONESIA TBK.,LG - TRIMEGAH SEKURITAS INDONESIA TBK.,2023-06-26,2023-07-06,118,128,2023-07-18,2023-07-21,2023-07-21,2023-07-24,25 Jul 2023,0.0,
Canceled,BITU-C1,PT BERKAH MULIA MANDIRI TBK,Industrials,Diversified Industrial Trading,,,,,,,,,,,Bidang Perdagangan Bitumen dan Pengelola Terminal Bitumen,"Jl. Margomulyo Industri I Blok C 10 Komplek Suri Mulia, Tambak Sarioso, Asemrowo, Surabaya 60184",https://www.berkahmuliamandiri.co.id,550000000,31.0,XA - NH KORINDO SEKURITAS INDONESIA,['XA - NH KORINDO SEKURITAS INDONESIA'],2023-07-20,2023-07-25,131,140,,,,,,0.25,
Closed,INET,PT Sinergi Inti Andalan Prima Tbk,Telecom,Networking Equipment,Pengembangan,Rp 101,0.3465346534653465,0.27205882352941174,0.1329479768786127,-0.05102040816326531,0.08602150537634409,0.019801980198019802,0.0,-0.297029702970297,Bergerak di bidang Teknologi Informasi,"Gedung Cyber 1, Lantai 10, Jl. Kuningan Barat No.8, Jakarta Selatan 12710",https://siapnetworks.co.id/,15.000.000 Lot,20%,AH - SHINHAN SEKURITAS INDONESIA,AH - SHINHAN SEKURITAS INDONESIA,2023-06-26,2023-07-05,100,101,2023-07-17,2023-07-20,2023-07-20,2023-07-21,24 Jul 2023,1.4,Rp 91
Canceled,AKSL-C1,PT Akselerasi Usaha Indonesia Tbk,Financials,Financial Holdings,,,,,,,,,,,Penyedia LPBBTI atau P2P Lending melalui Entitas Anak dan Perusahaan Holding,"Sahid Sudirman Center Lantai 11 Unit G, Jl. Jendral Sudirman Kav.86, Jakarta Pusat 10220",https://www.akselerangroup.com,2988493800,29.0,OD - BRI DANAREKSA SEKURITAS,"['OD - BRI DANAREKSA SEKURITAS', 'SQ - BCA SEKURITAS']",2023-07-03,2023-07-21,100,120,,,,,,0.1,0.0
Closed,TGUK,PT Platinum Wahab Nusantara Tbk,Consumer Staples,Food Retail & Distributors,Pengembangan,Rp 110,0.34545454545454546,-0.14864864864864866,0.07142857142857142,0.014814814814814815,0.014598540145985401,-0.14388489208633093,-0.14285714285714285,-0.5454545454545454,Makanan dan Minuman,"Ruko Golden Square Blok GS No. 2 Jl. Ciater Raya, Kelurahan Mekarjaya, Kecamatan Serpong Tangerang Selatan, Banten 15321",https://teguk.co.id/,10.714.290 Lot,30%,MG - SEMESTA INDOVEST SEKURITAS,MG - SEMESTA INDOVEST SEKURITAS,2023-06-19,2023-06-23,105,112,2023-07-04,2023-07-06,2023-07-06,2023-07-07,10 Jul 2023,0.4,Rp 152
Closed,CRSN,PT Carsurin Tbk,Consumer Discretionary,Business Support Services,Pengembangan,Rp 125,0.144,-0.14685314685314685,-0.00819672131147541,-0.024793388429752067,-0.0423728813559322,-0.05309734513274336,-0.07476635514018691,-0.128,"Testing, Inspection, Certification","SOHO CAPITAL, 28th Floor Jl. Letjen S. Parman Kav.28, Grogol Petamburan, Jakarta Barat",https://www.carsurin.com,6.000.000 Lot,20.75%,XA - NH KORINDO SEKURITAS INDONESIA,XA - NH KORINDO SEKURITAS INDONESIA,2023-06-16,2023-06-21,120,125,2023-07-04,2023-07-06,2023-07-06,2023-07-07,10 Jul 2023,0.0,
Closed,WIDI,PT Widiant Jaya Krenindo Tbk,Consumer Discretionary,Construction Machinery & Heavy Vehicles,Akselerasi,Rp 100,0.1,0.1,0.09917355371900827,-0.09774436090225563,-0.1,-0.09259259259259259,0.08163265306122448,-0.88,Bergerak dalam Bidang Jasa Sewa Alat Berat Beserta Operator,"Jl. Teh No. 4-6, RT.7/RW.3, Kel. Pinangsia, Kec. Taman Sari, Jakarta Barat, 11110, Indonesia",https://www.ptwidi.com/,4.000.000 Lot,25%,SH - ARTHA SEKURITAS INDONESIA,SH - ARTHA SEKURITAS INDONESIA,2023-06-16,2023-06-22,100,115,2023-07-04,2023-07-06,2023-07-06,2023-07-07,10 Jul 2023,1.05,Rp 120
Closed,GRPM,PT Graha Prima Mentari Tbk,Real Estate,Logistics & Deliveries,Akselerasi,Rp 120,-0.1,-0.09259259259259259,-0.09183673469387756,0.0,-0.056179775280898875,0.09523809523809523,-0.06521739130434782,-0.5583333333333333,Bidang Usaha Distribusi Minuman Berkarbonasi,Jl. Tuparev No. 87A. Cirebon - Jawa Barat,https://grahaprimamentari.co.id/,3.090.000 Lot,20%,XA - NH KORINDO SEKURITAS INDONESIA,XA - NH KORINDO SEKURITAS INDONESIA,2023-06-15,2023-06-20,120,130,2023-07-04,2023-07-06,2023-07-06,2023-07-07,10 Jul 2023,0.5,Rp 250
Closed,AMMN,PT Amman Mineral Internasional Tbk.,Utilities,Copper,Utama,Rp 1.695,0.035398230088495575,-0.002849002849002849,0.0,0.008571428571428572,-0.0028328611898017,0.011363636363636364,0.011235955056179775,4.929203539823009,Aktivitas Perusahaan Holding,"Gedung Menara Karya Lantai 6 Unit A, B, C dan H Jl. H.R. Rasuna Said Blok X-5 Kav. 1-2 Jakarta Selatan 12950",https://www.amman.co.id,63.282.088 Lot,8.8%,CC - MANDIRI SEKURITAS,CC - MANDIRI SEKURITASNI - BNI SEKURITASZP - MAYBANK SEKURITAS INDONESIADP - DBS VICKERS SEKURITAS INDONESIAOD - BRI DANAREKSA SEKURITASIF - SAMUEL SEKURITAS INDONESIAKZ - CLSA SEKURITAS INDONESIA,2023-05-31,2023-06-16,1650,1775,2023-07-03,2023-07-05,2023-07-05,2023-07-06,07 Jul 2023,0.0,
Closed,RELF,PT Graha Mitra Asia Tbk,Technology,Real Estate Development & Management,Akselerasi,Rp 90,0.1,0.09090909090909091,0.09259259259259259,0.09322033898305085,0.09302325581395349,0.09929078014184398,0.0967741935483871,-0.8222222222222222,Property & Real Estate,Sovereign Plaza Lt.5A Kav.36 Jl TB Simatupang Kota Jakarta Selatan - Daerah Khusus Ibukota Jakarta 12430,http://www.relifeasia.com/,12.000.000 Lot,20.95%,AI - KAY HIAN SEKURITAS,AI - KAY HIAN SEKURITAS,2023-05-25,2023-06-05,90,100,2023-06-15,2023-06-20,2023-06-20,2023-06-21,22 Jun 2023,1.0,Rp 125
Closed,VKTR,PT VKTR Teknologi Mobilitas Tbk,Energy,Auto Parts & Equipment,Pengembangan,Rp 100,0.11,0.0,0.009009009009009009,0.008928571428571428,0.017699115044247787,0.008695652173913044,0.017241379310344827,0.41,"Bergerak di bidang perdagangan KBLBB, komponen suku cadang, dan industri pengecoran besi",Bakrie Tower Lantai 35 Jl. H.R. Rasuna Said Jakarta 12940,https://www.vktr.id,87.500.000 Lot,20%,KI - CIPTADANA SEKURITAS ASIA,KI - CIPTADANA SEKURITAS ASIALG - TRIMEGAH SEKURITAS INDONESIA TBK.IF - SAMUEL SEKURITAS INDONESIA,2023-05-26,2023-05-31,100,130,2023-06-13,2023-06-15,2023-06-15,2023-06-16,19 Jun 2023,0.0,
Closed,KLAS,PT Pelayaran Kurnia Lautan Semesta Tbk,Real Estate,Logistics & Deliveries,Pengembangan,Rp 146,0.3493150684931507,-0.14720812182741116,-0.1488095238095238,-0.06293706293706294,-0.007462686567164179,-0.022556390977443608,-0.007692307692307693,0.4383561643835616,Bergerak di bidang angkutan laut dalam negeri barang umum,"Rukan Grand Puri Niaga Jl. Puri Kencana Blok K6 No 3-O Kel. Kembangan Selatan, Kec. Kembangan Kota Administrasi Jakarta Barat 11610",https://www.pelayarankls.co.id,5.400.000 Lot,24.94%,GR - PANIN SEKURITAS TBK.,GR - PANIN SEKURITAS TBK.,2023-05-23,2023-05-26,140,146,2023-06-06,2023-06-08,2023-06-08,2023-06-09,12 Jun 2023,0.0,
Closed,MAXI,PT Maxindo Karya Anugerah Tbk,Consumer Staples,Food Retail & Distributors,Pengembangan,Rp 100,-0.15,-0.1411764705882353,-0.136986301369863,-0.015873015873015872,-0.06451612903225806,-0.017241379310344827,-0.05263157894736842,-0.44,Bergerak dalam bidang usaha Industri Makanan Ringan,"Kawasan Industri Sentul Jl. Cahaya Raya Kav H5, Desa Leuwinutug, Kec. Citeureup Bogor, Jawa Barat 16180, Indonesia",https://maxisnacks.com/,10.000.000 Lot,10.41%,AH - SHINHAN SEKURITAS INDONESIA,AH - SHINHAN SEKURITAS INDONESIA,2023-05-22,2023-05-24,100,110,2023-06-06,2023-06-08,2023-06-08,2023-06-09,12 Jun 2023,1.0,Rp 100
Closed,SMIL,PT Sarana Mitra Luas Tbk,Consumer Discretionary,Construction Machinery & Heavy Vehicles,Utama,Rp 100,0.35,0.34814814814814815,-0.06593406593406594,-0.06470588235294118,-0.06918238993710692,-0.02027027027027027,-0.04827586206896552,1.06,Penyewaan Forklift dan Material Handling Equipment Lainnya,"Jl. Gemalapik Raya, Pasirsari, Cikarang Selatan, Bekasi, Jawa Barat 17530",https://www.sml.co.id/,17.500.000 Lot,20%,EP - MNC SEKURITAS,EP - MNC SEKURITASAO - ERDIKHA ELIT SEKURITASCP - KB VALBURY SEKURITAS,2023-03-30,2023-04-11,100,200,2023-05-08,2023-05-10,2023-05-10,2023-05-11,12 May 2023,1.4,Rp 500
Closed,MPXL,PT MPX Logistics International Tbk,Real Estate,Logistics & Deliveries,Pengembangan,Rp 108,0.3425925925925926,0.020689655172413793,-0.06756756756756757,-0.06521739130434782,-0.046511627906976744,-0.024390243902439025,0.016666666666666666,-0.009259259259259259,Bergerak di bidang Pengangkutan dan Perdagangan,"Jl. Soekarno Hatta No. 16 A Kampung Baru Raya, Labuhan Ratu, Bandar Lampung Lampung 35148",https://www.mpxlogistic.com,4.000.000 Lot,20%,GR - PANIN SEKURITAS TBK.,GR - PANIN SEKURITAS TBK.,2023-04-11,2023-04-14,103,110,2023-05-03,2023-05-05,2023-05-05,2023-05-08,09 May 2023,0.2,Rp 368
Closed,TYRE,PT King Tire Indonesia Tbk,Energy,Tires,Pengembangan,Rp 138,0.34782608695652173,-0.06989247311827956,-0.06936416184971098,-0.06832298136645963,-0.06,0.0425531914893617,-0.06802721088435375,-0.06521739130434782,Bergerak dalam bidang Industri Ban Luar dan Ban Dalam,"Jl. Raya Serang KM. 68 Desa Nambo Ilir, Kecamatan Kibin Kabupaten Serang – Banten 42185",https://www.kingland.co.id,7.000.000 Lot,20.13%,MI - VICTORIA SEKURITAS INDONESIA,MI - VICTORIA SEKURITAS INDONESIA,2023-04-06,2023-04-12,108,138,2023-05-02,2023-05-04,2023-05-04,2023-05-05,08 May 2023,0.5,Rp 150
Closed,JATI,PT Informasi Teknologi Indonesia Tbk,Telecom,Software,Pengembangan,Rp 100,0.35,0.34814814814814815,0.26373626373626374,-0.06956521739130435,0.0,-0.028037383177570093,-0.0673076923076923,-0.5,Perdagangan Teknologi Informasi,"Graha Orange Jl. Mampang Prapatan Raya No.3 Mampang Prapatan, Jakarta Selatan 12790",https://jatismobile.com/id/,6.525.000 Lot,20%,HD - KGI SEKURITAS INDONESIA,HD - KGI SEKURITAS INDONESIAAH - SHINHAN SEKURITAS INDONESIA,2023-04-11,2023-04-14,100,120,2023-05-02,2023-05-04,2023-05-04,2023-05-05,08 May 2023,1.0,Rp 250
Closed,DOOH,PT Era Media Sejahtera Tbk,Energy,Advertising,Pengembangan,Rp 100,0.05,0.0,-0.047619047619047616,-0.06,0.05319148936170213,-0.04040404040404041,-0.042105263157894736,-0.44,Bergerak dalam bidang Aktivitas Periklanan dan Konsultasi Manajemen lainya,"Ruko Fatmawati Mas Blok B5 Kav 205 Jl. RS Fatmawati No 20, Cilandak Barat, Cilandak, Jakarta Selatan, Indonesia – Kode pos 12430",https://www.sspace.id,15.475.000 Lot,20%,IU - INDO CAPITAL SEKURITAS,IU - INDO CAPITAL SEKURITASHD - KGI SEKURITAS INDONESIA,2023-04-10,2023-04-14,100,120,2023-05-02,2023-05-04,2023-05-04,2023-05-05,08 May 2023,0.8,Rp 135
Closed,RAAM,PT Tripar Multivision Plus Tbk.,Energy,Entertainment & Movie Production,Utama,Rp 234,0.24786324786324787,0.2465753424657534,0.24725274725274726,0.2444933920704846,0.24778761061946902,-0.06382978723404255,-0.06818181818181818,1.0427350427350428,"Bidang perfilman, khususnya produksi film, pascaproduksi film dan distribusi film","Multivision Tower, Lt. 21 – 23 Jl. Kuningan Mulia Lot 9B, Kuningan Jakarta Selatan 12980, Indonesia",https://www.mvpworld.com,9.292.000 Lot,15%,AI - KAY HIAN SEKURITAS,AI - KAY HIAN SEKURITASAZ - SUCOR SEKURITAS,2023-04-11,2023-04-18,224,250,2023-05-02,2023-05-04,2023-05-04,2023-05-05,08 May 2023,0.0,
Closed,AWAN,PT Era Digital Media Tbk,Telecom,,Pengembangan,Rp 100,0.35,0.34814814814814815,0.34065934065934067,0.2459016393442623,0.02631578947368421,-0.0641025641025641,-0.0684931506849315,2.08,Jasa Konten SMS Premium dan Aktivitas Perusahaan Holding,"Jl. Cikini Raya No. 72, Desa/Kelurahan Cikini, Kec. Menteng, Kota Adm. Jakarta Pusat, Provinsi DKI Jakarta, Kode Pos: 10330",https://ptedm.com/,7.500.000 Lot,21.83%,IF - SAMUEL SEKURITAS INDONESIA,IF - SAMUEL SEKURITAS INDONESIAAZ - SUCOR SEKURITAS,2023-03-28,2023-03-31,100,110,2023-04-12,2023-04-14,2023-04-14,2023-04-17,18 Apr 2023,0.0,
Closed,MENN,PT Menn Teknologi Indonesia Tbk,Telecom,Electronic Equipment & Instruments,Akselerasi,Rp 78,-0.08974358974358974,-0.09859154929577464,-0.09375,-0.08620689655172414,0.018867924528301886,-0.037037037037037035,-0.038461538461538464,-0.7948717948717948,Bergerak Dalam Bidang Teknologi Digital Penyedia Solusi Sistem Informasi Berbasis Internet of Things,"Mall Ambasador Lt.5 No. 9F Jl. Prof. Dr. Satrio, Karet Kuningan, Setiabudi, Jakarta Selatan, Indonesia - 12940",https://www.menngroup.id,4.302.000 Lot,30%,IU - INDO CAPITAL SEKURITAS,IU - INDO CAPITAL SEKURITASHD - KGI SEKURITAS INDONESIA,2023-03-27,2023-03-31,75,80,2023-04-12,2023-04-14,2023-04-14,2023-04-17,18 Apr 2023,0.67,Rp 98
Closed,MBMA,PT Merdeka Battery Materials Tbk.,Utilities,Diversified Metals & Minerals,,Rp 795,0.11320754716981132,-0.06779661016949153,-0.006060606060606061,0.012195121951219513,-0.030120481927710843,-0.012422360248447204,0.012578616352201259,-0.2830188679245283,Grup usaha di sektor nikel dan mineral lainnya yang terintegrasi secara vertikal,"Treasury Tower Lantai 69, District 8, SCBD Lot 28 Jl Jend. Sudirman Kav. 52-53, Jakarta Selatan 12190, DKI Jakarta",https://www.merdekabattery.com/,110.000.000 Lot,10.24%,PD - INDO PREMIER SEKURITAS,PD - INDO PREMIER SEKURITASAZ - SUCOR SEKURITASRX - MACQUARIE SEKURITAS INDONESIAPP - ALDIRACITA SEKURITAS INDONESIALG - TRIMEGAH SEKURITAS INDONESIA TBK.KI - CIPTADANA SEKURITAS ASIAAK - UBS SEKURITAS INDONESIA,2023-03-28,2023-04-04,780,795,2023-04-12,2023-04-14,2023-04-14,2023-04-17,18 Apr 2023,0.0,
Closed,NCKL,PT Trimegah Bangun Persada Tbk,Utilities,Diversified Metals & Minerals,Utama,Rp 1.250,0.044,0.03065134099616858,0.022304832713754646,0.01818181818181818,0.03214285714285714,-0.06920415224913495,0.01486988847583643,-0.276,Bergerak di bidang usaha Pertambangan Bijih Nikel,"Gedung Bank Panin Lt. 2 Jalan Jendral Sudirman Kav. 1 Kelurahan Gelora, Kecamatan Tanah Abang, Jakarta Pusat 10270",https://www.tbpnickel.com,79.976.000 Lot,12.67%,CC - MANDIRI SEKURITAS,CC - MANDIRI SEKURITASY0 - BNP Paribas Sekuritas IndonesiaAI - KAY HIAN SEKURITASC4 - CITIGROUP SEKURITAS INDONESIACS - CREDIT SUISSE SEKURITAS INDONESIATP - OCBC SEKURITAS INDONESIADP - DBS VICKERS SEKURITAS INDONESIA,2023-03-15,2023-03-24,1220,1250,2023-04-05,2023-04-10,2023-04-10,2023-04-11,12 Apr 2023,0.0,
Closed,PIPA,PT Multi Makmur Lemindo Tbk,Consumer Discretionary,Building Products & Fixtures,Pemantauan Khusus,Rp 105,0.34285714285714286,0.3475177304964539,0.015789473684210527,-0.06735751295336788,-0.06666666666666667,-0.06547619047619048,-0.06369426751592357,-0.9047619047619048,Bergerak di bidang manufaktur material bahan bangunan dari plastik berbahan dasar PVC dan perdagang,"Jl. Sultan Iskandar Muda No.70, Kedaung Baru, Neglasari Tangerang, Banten. 15128",https://www.multimakmurlemindo.com,9.250.000 Lot,27.01%,AH - SHINHAN SEKURITAS INDONESIA,AH - SHINHAN SEKURITAS INDONESIA,2023-03-15,2023-03-21,100,110,2023-04-03,2023-04-05,2023-04-05,2023-04-06,10 Apr 2023,0.9,Rp 110
Closed,HAJJ,PT Arsy Buana Travelindo Tbk,Energy,Travel Agencies,Akselerasi,Rp 140,0.1,0.09740259740259741,0.09467455621301775,0.04864864864864865,-0.0979381443298969,0.08571428571428572,0.09473684210526316,-0.07857142857142857,Perseroan bergerak dalam bidang Jasa Penyedia Akomodasi Perjalanan Wisata,"Ruko Harvest No. 3, Jl. Merpati Raya, Kel. Sawah, Kec. Ciputat, Kota Tangerang Selatan, 15413",https://abttravel.id/,6.871.000 Lot,29.99%,SF - SURYA FAJAR SEKURITAS,SF - SURYA FAJAR SEKURITAS,2023-02-24,2023-03-09,140,145,2023-03-28,2023-04-03,2023-04-03,2023-04-04,05 Apr 2023,0.8,Rp 175
Closed,GTRA,PT Grahaprima Suksesmandiri Tbk,Real Estate,Logistics & Deliveries,Pengembangan,Rp 150,0.3466666666666667,0.24752475247524752,0.06349206349206349,-0.04477611940298507,0.0859375,-0.03597122302158273,-0.06716417910447761,-0.18,Bergerak dalam bidang angkutan bermotor untuk barang umum,"Gedung Graha 55 Lt.3, Jalan Tanah Abang II No. 57 Kel. Petojo Selatan, Kec. Gambir, Jakarta Pusat 10160, Indonesia",https://www.grahatrans.com,3.788.750 Lot,20%,AI - KAY HIAN SEKURITAS,AI - KAY HIAN SEKURITAS,2023-02-27,2023-03-06,100,150,2023-03-21,2023-03-28,2023-03-28,2023-03-29,30 Mar 2023,0.0,
Closed,NSSS,PT Nusantara Sawit Sejahtera Tbk,Consumer Staples,Plantations & Crops,Pengembangan,Rp 127,0.06299212598425197,-0.05185185185185185,0.015625,0.023076923076923078,-0.015037593984962405,0.05343511450381679,0.0,0.5275590551181102,Aktivitas Perusahaan Holding dan Aktivitas Konsultasi Manajemen Lainnya,"Menara Imperium LT20, Suite C, Jalan H.R. Rasuna Said Kav.1, Kelurahan Guntur, Kecamatan Setiabudi, Kota Administrasi Jakarta Selatan 12980, Provinsi DKI Jakarta",https://nssgroup.id/,35.682.353 Lot,15%,IF - SAMUEL SEKURITAS INDONESIA,IF - SAMUEL SEKURITAS INDONESIAAZ - SUCOR SEKURITASRS - YULIE SEKURITAS INDONESIA TBK.OD - BRI DANAREKSA SEKURITASPF - DANASAKTI SEKURITAS INDONESIAKK - PHILLIP SEKURITAS INDONESIAYP - MIRAE ASSET SEKURITAS INDONESIA,2023-02-17,2023-02-22,122,190,2023-03-02,2023-03-08,2023-03-08,2023-03-09,10 Mar 2023,0.5,Rp 190
Closed,SAGE,PT Saptausaha Gemilangindah Tbk,Technology,Real Estate Development & Management,Pemantauan Khusus,Rp 100,0.35,0.2814814814814815,-0.06936416184971098,-0.06832298136645963,-0.06666666666666667,-0.06428571428571428,-0.06870229007633588,-0.87,Bergerak dalam bidang real estat,"Jl. Kramat Raya No. 32-34 Kel. Kramat Kec. Senen, Jakarta Pusat, DKI Jakarta 10450",https://www.saptagroup.com/,16.100.000 Lot,20.04%,II - DANATAMA MAKMUR SEKURITAS,II - DANATAMA MAKMUR SEKURITASSH - ARTHA SEKURITAS INDONESIA,2023-02-16,2023-02-22,100,125,2023-03-02,2023-03-06,2023-03-06,2023-03-07,08 Mar 2023,1.25,Rp 110
Closed,TRON,PT Teknologi Karya Digital Nusa Tbk,Telecom,IT Services & Consulting,Pengembangan,Rp 180,0.3111111111111111,0.15254237288135594,0.051470588235294115,-0.06993006993006994,0.015037593984962405,0.06666666666666667,0.0,-0.35,Bergerak dalam bidang penyediaan solusi sistem informasi berbasis telematika dan Internet of Things,"Mini Office Central 88 Blok G1 No. 826, Jl. Trembesi Pademangan Timur, Kec. Pademangan Kota Adm. Jakarta Utara",https://www.tkdn.co.id,7.500.000 Lot,25.42%,SF - SURYA FAJAR SEKURITAS,SF - SURYA FAJAR SEKURITAS,2023-02-10,2023-02-20,140,220,2023-03-02,2023-03-06,2023-03-06,2023-03-07,08 Mar 2023,0.5,Rp 250
Closed,CUAN,PT Petrindo Jaya Kreasi Tbk,Financials,Coal Production,Utama,Rp 220,0.24545454545454545,0.24817518248175183,0.24561403508771928,0.24413145539906103,0.24528301886792453,0.25,-0.06666666666666667,35.36363636363637,Pertambangan Batubara,"Gedung Wisma Barito Pacific, lantai 3 B Jl. Let. Jend. S. Parman Kav. 62-63, Jakarta.",https://petrindo.co.id,16.900.000 Lot,15.03%,HP - HENAN PUTIHRAI SEKURITAS,HP - HENAN PUTIHRAI SEKURITASOD - BRI DANAREKSA SEKURITAS,2023-02-17,2023-02-22,200,220,2023-03-02,2023-03-06,2023-03-06,2023-03-07,08 Mar 2023,0.0,
Closed,PTMP,PT Mitra Pack Tbk,Consumer Discretionary,Diversified Industrial Trading,Pengembangan,Rp 120,0.19166666666666668,-0.02097902097902098,-0.02142857142857143,0.014598540145985401,-0.02158273381294964,-0.03676470588235294,-0.015267175572519083,-0.23333333333333334,distributor resmi & penyewaan barang-barang industri pengemasan termasuk suku cadang dan service...,"Jl Pangeran Jayakarta Komplek 135 Blok B-20 Mangga Dua Selatan, Sawah Besar, Jakarta Pusat",https://www.mitrapack.co.id,8.000.000 Lot,25.24%,XA - NH KORINDO SEKURITAS INDONESIA,XA - NH KORINDO SEKURITAS INDONESIA,2023-02-07,2023-02-09,100,120,2023-02-27,2023-03-02,2023-03-02,2023-03-03,06 Mar 2023,0.0,
Closed,BDKR,PT Berdikari Pondasi Perkasa Tbk,Materials,Heavy Constructions & Civil Engineering,Utama,Rp 200,0.15,0.06956521739130435,-0.024390243902439025,-0.041666666666666664,0.12173913043478261,-0.023255813953488372,0.023809523809523808,3.5,"Bergerak dalam bidang pondasi, perbaikan tanah, konstruksi dermaga, alat berat dan penyewaan crane","Jl. Bandengan Utara No. 32B RT 008 RW 011 Pekojan, Tambora – Jakarta Barat",https://www.ptbppid.com,7.061.000 Lot,15%,MG - SEMESTA INDOVEST SEKURITAS,MG - SEMESTA INDOVEST SEKURITAS,2023-02-06,2023-02-10,188,200,2023-02-27,2023-03-01,2023-03-01,2023-03-02,03 Mar 2023,0.5,Rp 500
Closed,HILL,PT Hillcon Tbk,Utilities,Diversified Metals & Minerals,Utama,Rp 1.250,0.064,0.12406015037593984,0.010033444816053512,0.033112582781456956,0.01282051282051282,0.03164556962025317,0.006134969325153374,0.712,"Aktivitas Perusahaan Holding, Aktivitas Konsultasi Manajemen, Jasa Pertambangan dan Jasa Konstruksi","Blok R2, Jl. Taman Modern No. 19 RT.014/RW.006, Ujung Menteng, Kecamatan Cakung, Kota Jakarta Timur, Daerah Khusus Ibukota Jakarta 13960",https://www.hillcon.co.id/,4.423.000 Lot,15%,YP - MIRAE ASSET SEKURITAS INDONESIA,YP - MIRAE ASSET SEKURITAS INDONESIAAZ - SUCOR SEKURITASRX - MACQUARIE SEKURITAS INDONESIA,2023-01-12,2023-02-03,1250,2000,2023-02-23,2023-02-27,2023-02-27,2023-02-28,01 Mar 2023,0.0,
Closed,FUTR,PT Lini Imaji Kreasi Ekosistem Tbk,Energy,Advertising,Pemantauan Khusus,Rp 100,0.0,0.21,0.34710743801652894,-0.06748466257668712,-0.06578947368421052,0.056338028169014086,-0.06666666666666667,-0.39,"Bergerak dalam bidang periklanan, aktivitas desain khusus film, video, program TV, animasi dan komik","Fatmawati Mas Blok III No. 307-309 Jl. RS Fatmawati No 20 Jakarta Selatan, Indonesia",https://futurphuture.io/,12.780.000 Lot,20%,IU - INDO CAPITAL SEKURITAS,IU - INDO CAPITAL SEKURITASHD - KGI SEKURITAS INDONESIA,2023-02-01,2023-02-07,100,120,2023-02-21,2023-02-23,2023-02-23,2023-02-24,27 Feb 2023,0.8,Rp 135
Closed,PGEO,PT Pertamina Geothermal Energy Tbk,Materials,Electric Utilities,Utama,Rp 875,0.0,-0.05142857142857143,-0.03614457831325301,0.04375,0.041916167664670656,0.005747126436781609,-0.017142857142857144,0.32571428571428573,Menyelenggarakan usaha di bidang panas bumi dari sisi hulu dan/atau sisi hilir serta kegiatan usaha,"Grha Pertamina – Tower Pertamax Lt. 7 Jl. Medan Merdeka Timur No. 11-13 Gambir, Jakarta Pusat 10110, Indonesia",https://www.pge.pertamina.com,103.500.000 Lot,25%,CC - MANDIRI SEKURITAS,CC - MANDIRI SEKURITASCS - CREDIT SUISSE SEKURITAS INDONESIADX - BAHANA SEKURITASGW - HSBC SEKURITAS INDONESIAPF - DANASAKTI SEKURITAS INDONESIAIF - SAMUEL SEKURITAS INDONESIAKZ - CLSA SEKURITAS INDONESIA,2023-02-01,2023-02-09,820,945,2023-02-20,2023-02-22,2023-02-22,2023-02-23,24 Feb 2023,0.0,
Closed,KING,PT Hoffmen Cleanindo Tbk,Consumer Discretionary,Human Resource & Employment Services,Akselerasi,Rp 130,-0.1,-0.09401709401709402,-0.09433962264150944,0.09375,0.09523809523809523,0.09565217391304348,-0.03968253968253968,0.26153846153846155,"Jasa Cleaning Service, Security, Washroom Hygiene, Labour Supply dan Parkir melalui Perusahaan Anak",Jl. Raya Jembatan Tiga No. 8 Penjaringan Jakarta Utara 14440,https://www.hoffmen.co.id,5.200.000 Lot,20%,XA - NH KORINDO SEKURITAS INDONESIA,XA - NH KORINDO SEKURITAS INDONESIA,2023-01-25,2023-01-30,115,130,2023-02-10,2023-02-14,2023-02-14,2023-02-15,16 Feb 2023,0.5,Rp 200
Closed,VAST,PT Vastland Indonesia Tbk,Technology,Real Estate Development & Management,Pengembangan,Rp 108,-0.06481481481481481,-0.04950495049504951,0.25,-0.06666666666666667,-0.03571428571428571,-0.027777777777777776,0.02857142857142857,-0.3333333333333333,Real Estate yang Dimiliki Sendiri atau Disewa,"Jl. Tembesu No. 8A, Kel. Campang Raya, Sukabumi, Bandar Lampung, Lampung 35122",https://www.vastland.co.id,6.500.000 Lot,21.27%,AO - ERDIKHA ELIT SEKURITAS,AO - ERDIKHA ELIT SEKURITAS,2023-01-16,2023-01-20,100,109,2023-02-01,2023-02-06,2023-02-06,2023-02-07,08 Feb 2023,0.2,Rp 338
Closed,CHIP,PT Pelita Teknologi Global Tbk,Telecom,Electronic Equipment & Instruments,Akselerasi,Rp 160,0.1,0.09659090909090909,0.09844559585492228,0.09433962264150944,-0.008620689655172414,0.034782608695652174,0.09243697478991597,7.28125,Bergerak dalam Bidang Aktivitas Konsultasi dan Perancangan Internet of Things & Industri Smart Card,"Jl. Gatot Subroto KM 5, No 66, Kroncong, Jatiuwung, Tangerang, Banten 15134",https://www.pelitateknologi.com,2.000.000 Lot,24.81%,YJ - LOTUS ANDALAN SEKURITAS,YJ - LOTUS ANDALAN SEKURITAS,2023-01-17,2023-01-24,140,180,2023-02-02,2023-02-06,2023-02-06,2023-02-07,08 Feb 2023,0.0,
Closed,HALO,PT Haloni Jane Tbk,Healthcare,Healthcare Equipment,Pengembangan,Rp 100,0.17,0.008547008547008548,0.11016949152542373,-0.06870229007633588,-0.02459016393442623,0.058823529411764705,-0.031746031746031744,-0.25,Bergerak dalam bidang barang dari karet untuk kesehatan,"Jl Raya Serang km. 13,8 Kawasan Industri Tristate, Sukadamai Cikupa Tangerang Indonesia",http://halonijane.co.id/,11.300.000 Lot,20%,II - DANATAMA MAKMUR SEKURITAS,II - DANATAMA MAKMUR SEKURITASCP - KB VALBURY SEKURITAS,2023-01-17,2023-01-24,100,150,2023-02-01,2023-02-06,2023-02-06,2023-02-07,08 Feb 2023,0.5,Rp 150
Closed,PACK,PT Solusi Kemasan Digital Tbk,Consumer Discretionary,Commercial Printing,Akselerasi,Rp 162,-0.09876543209876543,-0.0958904109589041,-0.06060606060606061,-0.0967741935483871,-0.08928571428571429,-0.0784313725490196,0.02127659574468085,-0.7592592592592593,Industri Percetakan Digital Untuk Kemasan Fleksibel,"JL. Jababeka 2 Blok C/11-D Kawasan Industri Jababeka Cikarang Utara Kabupaten Bekasi, Jawa Barat 17530",https://www.flexypack.com,3.080.000 Lot,20.03%,XA - NH KORINDO SEKURITAS INDONESIA,XA - NH KORINDO SEKURITAS INDONESIA,2023-01-12,2023-01-17,110,162,2023-02-02,2023-02-06,2023-02-06,2023-02-07,08 Feb 2023,0.2,Rp 350
Closed,IRSX,PT Aviana Sinar Abadi Tbk,Telecom,Software,Pemantauan Khusus,Rp 101,0.019801980198019802,-0.019417475728155338,-0.009900990099009901,-0.07,0.010752688172043012,0.010638297872340425,-0.042105263157894736,-0.8613861386138614,Bergerak di Bidang Aktivitas Pemrograman Komputer Lainnya,"Jl. Alaydrus No. 66 BC Lantai 3 - RT.10/RW.2, Petojo Utara, Gambir, Kota Jakarta Pusat Daerah Khusus Ibukota Jakarta 10130",https://aviana.co.id/,10.000.000 Lot,20%,AH - SHINHAN SEKURITAS INDONESIA,AH - SHINHAN SEKURITAS INDONESIA,2023-01-11,2023-01-17,100,101,2023-02-01,2023-02-03,2023-02-03,2023-02-06,07 Feb 2023,1.4,Rp 91
Closed,NAYZ,PT Hassana Boga Sejahtera Tbk,Consumer Staples,Processed Foods,Akselerasi,Rp 100,-0.1,-0.1,-0.09876543209876543,0.0273972602739726,-0.04,0.05555555555555555,0.06578947368421052,-0.77,Menjalankan usaha dalam bidang industri makanan bayi,"Kawasan Pergudangan Multiguna Taman Tekno 2 Blok L2 No. 35 BSD, Tangerang Selatan, Banten",https://www.hassana.co.id/,5.100.000 Lot,20%,SF - SURYA FAJAR SEKURITAS,SF - SURYA FAJAR SEKURITAS,2023-01-02,2023-01-11,100,120,2023-01-31,2023-02-02,2023-02-02,2023-02-03,06 Feb 2023,1.0,Rp 125
Closed,FWCT,PT Wijaya Cahaya Timber Tbk,Utilities,Timber,Pengembangan,Rp 118,0.3474576271186441,-0.06918238993710692,-0.06756756756756757,-0.06521739130434782,-0.06976744186046512,-0.06666666666666667,0.14285714285714285,-0.13559322033898305,Industri Kayu Lapis,"Jl. Puri Indah, Ruko Sentra Niaga Puri Indah Blok T1 No.47, Kembangan Selatan, Kembangan, Jakarta Barat, Jakarta 11610",http://wijayacahayatimber.com/,3.750.000 Lot,20%,YJ - LOTUS ANDALAN SEKURITAS,YJ - LOTUS ANDALAN SEKURITAS,2023-01-09,2023-01-16,108,118,2023-01-26,2023-01-30,2023-01-30,2023-01-31,01 Feb 2023,0.0,
Closed,LAJU,PT Jasa Berdikari Logistics Tbk,Real Estate,Logistics & Deliveries,Pengembangan,Rp 100,0.35,0.02962962962962963,-0.06474820143884892,0.007692307692307693,0.07633587786259542,0.0851063829787234,-0.058823529411764705,-0.5,Jasa Logistik Terintegrasi,"Jl. Kopi No. 4 D Lt. 2. Roa Malaka, Tambora Jakarta Barat – 11230 Telepon: 021 – 6912287",https://www.jasaberdikari.co.id,7.000.000 Lot,32.56%,XA - NH KORINDO SEKURITAS INDONESIA,XA - NH KORINDO SEKURITAS INDONESIA,2022-12-30,2023-01-06,100,150,2023-01-20,2023-01-25,2023-01-25,2023-01-26,27 Jan 2023,0.2,Rp 175
Closed,PEVE,PT Penta Valent Tbk,Healthcare,Pharmaceuticals,Pengembangan,Rp 149,0.3422818791946309,0.22,-0.05737704918032787,0.0,-0.043478260869565216,-0.06363636363636363,0.0,0.6510067114093959,Distributor Produk Farmasi dan Produk Konsumsi,"Jl. Kedoya Raya No. 33, Kedoya Utara, Kebon Jeruk 11520",http://www.pentavalent.co.id/,3.531.250 Lot,20%,YJ - LOTUS ANDALAN SEKURITAS,YJ - LOTUS ANDALAN SEKURITAS,2022-12-30,2023-01-05,120,149,2023-01-17,2023-01-19,2023-01-19,2023-01-20,24 Jan 2023,0.0,
Canceled,BSMT-C1,PT Bank Pembangunan Daerah Sumatera Utara Tbk.,Financials,Banks,,,,,,,,,,,Jasa Perbankan,"Gedung Bank SUMUT JL. Imam Bonjol No 18 Medan 20212 Sumatera Utara, Indonesia",https://www.banksumut.co.id,2934798300,23.0,OD - BRI DANAREKSA SEKURITAS,"['OD - BRI DANAREKSA SEKURITAS', 'AI - UOB KAY HIAN SEKURITAS', 'DR - RHB SEKURITAS INDONESIA', 'PP - ALDIRACITA SEKURITAS INDONESIA']",2023-01-05,2023-01-18,350,510,,,,,,0.0,
Closed,BMBL,PT Lavender Bina Cendikia Tbk,Energy,Education Services,Akselerasi,Rp 188,-0.09574468085106383,-0.1,-0.09803921568627451,-0.09420289855072464,-0.096,-0.09734513274336283,0.0,-0.9095744680851063,Pendidikan Bimbingan Belajar dan Konseling Swasta,"Office Tower Taman Melati Lt.5 Jalan Margonda Raya no.525 Depok, Jawa Barat",http://www.lavenderprograms.com/,2.800.000 Lot,27.19%,HD - KGI SEKURITAS INDONESIA,HD - KGI SEKURITAS INDONESIAYP - MIRAE ASSET SEKURITAS INDONESIA,2022-12-19,2022-12-26,187,196,2023-01-03,2023-01-09,2023-01-09,2023-01-10,11 Jan 2023,0.8,Rp 250
Closed,WINE,PT Hatten Bali Tbk,Energy,Consumer Distributors,Pengembangan,Rp 129,0.3488372093023256,0.3448275862068966,0.24786324786324787,0.1095890410958904,-0.06790123456790123,-0.06622516556291391,-0.06382978723404255,1.7751937984496124,Distribusi Minuman Beralkohol dan Pengolahannya melalui Perusahaan Anak,"Hatten Wines Building Jl. Bypass Ngurah Rai No. 393, Sanur, Bali",https://www.hattenbali.co.id,6.780.000 Lot,25.02%,XA - NH KORINDO SEKURITAS INDONESIA,XA - NH KORINDO SEKURITAS INDONESIA,2022-12-19,2022-12-22,100,150,2023-01-03,2023-01-06,2023-01-06,2023-01-09,10 Jan 2023,0.0,
Closed,SUNI,PT Sunindo Pratama Tbk,Financials,"Oil, Gas & Coal Equipment & Services",Utama,Rp 300,0.0,-0.03333333333333333,0.10344827586206896,-0.05625,0.0,-0.019867549668874173,0.006756756756756757,1.4166666666666667,"Bergerak dalam bidang perdagangan besar mesin, peralatan dan perlengkapan lainnya, perdagangan besar","Jl. Prof Dr. Soepomo SH. No. 48, Tebet Jakarta Selatan 12870, Indonesia",https://www.sunindogroup.com,6.000.000 Lot,24%,AI - KAY HIAN SEKURITAS,AI - KAY HIAN SEKURITAS,2022-12-19,2022-12-23,280,300,2023-01-02,2023-01-05,2023-01-05,2023-01-06,09 Jan 2023,0.0,
Closed,CBRE,PT Cakra Buana Resources Energi Tbk,Financials,Coal Distribution,Pemantauan Khusus,Rp 108,0.3425925925925926,0.3448275862068966,-0.06666666666666667,-0.06593406593406594,-0.06470588235294118,-0.06918238993710692,0.0472972972972973,-0.8148148148148148,Angkutan Laut Dalam Negeri Untuk Barang Umum,"Sona Topas Tower Lt. 5A, Jl. Jenderal Sudirman Kav. 26, Jakarta Selatan 12920, Indonesia",https://www.cbre.co.id,7.380.000 Lot,16.26%,DR - RHB SEKURITAS INDONESIA,DR - RHB SEKURITAS INDONESIAHD - KGI SEKURITAS INDONESIA,2022-12-13,2022-12-16,100,110,2023-01-02,2023-01-05,2023-01-05,2023-01-06,09 Jan 2023,1.8,Rp 258
Closed,BEER,PT Jobubu Jarum Minahasa Tbk,Consumer Staples,Liquors,Pengembangan,Rp 220,0.17272727272727273,0.015503875968992248,-0.007633587786259542,0.007692307692307693,0.04580152671755725,-0.0072992700729927005,0.03676470588235294,-0.12727272727272726,"Industri Minuman Beralkohol Hasil Destilasi, Industri Minuman Beralkohol Hasil Fermentasi Anggur","Desa Kapitu, Kelurahan Kapitu, Kecamatan Amurang Barat, Kabupaten Minahasa Selatan, Provinsi Sulawesi Utara",http://www.jobubu.com/,8.000.000 Lot,20%,AI - KAY HIAN SEKURITAS,AI - KAY HIAN SEKURITAS,2022-12-16,2022-12-22,200,220,2023-01-02,2023-01-04,2023-01-04,2023-01-05,06 Jan 2023,0.0,
Closed,ELIT,PT Data Sinergitama Jaya Tbk,Telecom,IT Services & Consulting,Pengembangan,Rp 120,-0.06666666666666667,0.3482142857142857,0.11920529801324503,-0.011834319526627219,0.011976047904191617,-0.0650887573964497,-0.06962025316455696,-0.11666666666666667,Bidang Usaha Penyedia Layanan (managed service) di Bidang Teknologi Informasi (Cloud),"The Manhattan Squre Tower B Lt. 22, Jl. TB Simatupang, RT.3/RW.3, Cilandak Timur, Pasar Minggu, Jakarta Selatan,12560 Telepon: 0217511004",https://www.elitery.com,5.000.000 Lot,24.61%,XA - NH KORINDO SEKURITAS INDONESIA,XA - NH KORINDO SEKURITAS INDONESIA,2022-12-16,2022-12-22,120,150,2023-01-02,2023-01-04,2023-01-04,2023-01-05,06 Jan 2023,0.5,Rp 150
Closed,CBPE,PT Citra Buana Prasida Tbk,Technology,Real Estate Development & Management,Pengembangan,Rp 150,-0.006666666666666667,-0.006711409395973154,0.02702702702702703,0.2631578947368421,-0.06770833333333333,-0.0670391061452514,-0.0658682634730539,0.30666666666666664,Bergerak di bidang real estat dan property,"Komplek Paskal Hyper Square Blok G Lantai 2 No. 206 – 208, Jl. H.O.S. Cokroaminoto No. 25 – 27 (dh. Jl. Pasirkaliki No. 25 – 27), Bandung 40181, Tel.: (022) 8606 1108",https://www.citrabuanaprasida.co.id,2.712.500 Lot,20%,GR - PANIN SEKURITAS TBK.,GR - PANIN SEKURITAS TBK.,2022-12-19,2022-12-23,100,150,2023-01-02,2023-01-04,2023-01-04,2023-01-05,06 Jan 2023,0.0,
Closed,SOUL,PT Mitra Tirta Buwana Tbk,Consumer Staples,Food Retail & Distributors,Akselerasi,Rp 110,-0.1,-0.09090909090909091,-0.1,-0.09876543209876543,-0.0410958904109589,-0.1,-0.09523809523809523,-0.8363636363636363,Bergerak dalam bidang usaha Air Minum Dalam Kemasan,"Jl. Waru No. 74 Sambilegi Baru RT.001 RW.003 Maguwoharjo, Depok, Sleman Yogyakarta - Indonesia, 55282",http://hexsoul.co.id/,2.700.000 Lot,24.94%,AN - WANTEG SEKURITAS,AN - WANTEG SEKURITASAH - SHINHAN SEKURITAS INDONESIA,2022-12-19,2022-12-26,100,110,2023-01-02,2023-01-04,2023-01-04,2023-01-05,06 Jan 2023,0.25,Rp 100
Closed,VTNY,PT Venteny Fortuna International Tbk,Industrials,Consumer Financing,Utama,Rp 360,0.1,-0.045454545454545456,0.0,0.031746031746031744,0.03076923076923077,0.014925373134328358,-0.0196078431372549,-0.6416666666666667,Aktivitas Perusahaan Holding dan Aktivitas Pengembangan Aplikasi Perdagangan Melalui Internet,"World Trade Centre (WTC) 5 Lantai 13, Jl. Jend. Sudirman Kav. 29-31, Jakarta Selatan, 12920",https://www.venteny.com,9.397.791 Lot,15%,SF - SURYA FAJAR SEKURITAS,SF - SURYA FAJAR SEKURITASCD - MEGA CAPITAL SEKURITASOD - BRI DANAREKSA SEKURITASYP - MIRAE ASSET SEKURITAS INDONESIA,2022-11-21,2022-11-29,350,450,2022-12-09,2022-12-13,2022-12-13,2022-12-14,15 Dec 2022,0.0,
Closed,ISAP,PT Isra Presisi Indonesia Tbk,Energy,Auto Parts & Equipment,Akselerasi,Rp 96,-0.09375,-0.09195402298850575,-0.08860759493670886,-0.09722222222222222,0.09230769230769231,0.09859154929577464,0.08974358974358974,-0.90625,Industri Mesin dan Perkakas Mesin untuk Pengerjaan Logam,"Kawasan Industri Delta Silicon III Lippo Cikarang Bekasi Jawa Barat, 17530",https://www.isra.co.id/en,15.000.000 Lot,37.31%,AI - KAY HIAN SEKURITAS,AI - KAY HIAN SEKURITAS,2022-11-07,2022-11-14,95,100,2022-12-01,2022-12-07,2022-12-07,2022-12-08,09 Dec 2022,0.5,Rp 125
Closed,PADA,PT Personel Alih Daya Tbk,Consumer Discretionary,Human Resource & Employment Services,Pemantauan Khusus,Rp 100,0.1,-0.05454545454545454,-0.028846153846153848,-0.039603960396039604,0.13402061855670103,-0.02727272727272727,-0.009345794392523364,-0.86,"Jasa Teknikal dan Pemeliharaan Peralatan Telekomunikasi, Call Center, Perkantoran, Keamanan dan SDM","Jl. Kebagusan 1 No. 4, Kebagusan, Pasar Minggu, Jakarta Selatan, Kode Pos 12520, Indonesia",https://www.persada.id,9.000.000 Lot,28.57%,AI - KAY HIAN SEKURITAS,AI - KAY HIAN SEKURITASAO - ERDIKHA ELIT SEKURITAS,2022-11-16,2022-11-22,100,120,2022-12-02,2022-12-06,2022-12-06,2022-12-07,08 Dec 2022,0.0,
Closed,MMIX,PT Multi Medika Internasional Tbk,Consumer Staples,Household Products,Pengembangan,Rp 190,0.3473684210526316,-0.0625,-0.06666666666666667,0.05357142857142857,0.025423728813559324,-0.01652892561983471,0.07563025210084033,-0.6210526315789474,"Perdagangan Besar Alat Laboratorium, Alat Farmasi dan Alat Kedokteran Untuk Manusia, dan Sewa Guna U","PT. Multi Medika Internasional Tbk Jl. Peternakan III No.55B, Kelurahan Kapuk, Kecamatan Cengkareng, Jakarta Barat – DKI Jakarta, Kode Pos 11720",https://www.multimed.co.id/,6.000.000 Lot,25%,YP - MIRAE ASSET SEKURITAS INDONESIA,YP - MIRAE ASSET SEKURITAS INDONESIA,2022-11-15,2022-11-22,160,210,2022-11-30,2022-12-02,2022-12-02,2022-12-05,06 Dec 2022,0.5,Rp 300
Closed,NINE,PT Techno9 Indonesia Tbk,Telecom,IT Services & Consulting,Akselerasi,Rp 75,-0.08,-0.08695652173913043,-0.09523809523809523,-0.08771929824561403,-0.09615384615384616,-0.0851063829787234,-0.09302325581395349,-0.8933333333333333,Bergerak di bidang perdagangan komputer dan perlengkapannya,Komplek Taman Semanan Indah Ruko Plaza Delumina Blok C No. 1 Duri Kosambi – Cengkareng Jakarta Barat 11750,https://www.techno9indonesia.com/,4.320.000 Lot,20.03%,SA - ELIT SUKSES SEKURITAS,SA - ELIT SUKSES SEKURITASMI - VICTORIA SEKURITAS INDONESIA,2022-11-14,2022-11-17,70,90,2022-11-28,2022-12-01,2022-12-01,2022-12-02,05 Dec 2022,0.0,
Closed,ZATA,PT Bersama Zatta Jaya Tbk,Energy,"Clothing, Accessories & Bags",Pemantauan Khusus,Rp 100,0.35,0.34814814814814815,0.34065934065934067,0.23770491803278687,-0.06622516556291391,-0.06382978723404255,-0.06818181818181818,-0.91,Company Overview,"Komplek Industri Prapanca No.24, Cigondewah Kaler Kec. Bandung Kulon, Kota Bandung - Jawa Barat 40214",https://www.elcorps.com/,17.000.000 Lot,20.01%,AI - KAY HIAN SEKURITAS,AI - KAY HIAN SEKURITAS,2022-10-20,2022-10-26,100,130,2022-11-02,2022-11-08,2022-11-08,2022-11-09,10 Nov 2022,0.0,
Closed,KETR,PT Ketrosden Triasmitra Tbk,Materials,Wired Telecommunication Service,Pengembangan,Rp 300,0.06666666666666667,-0.06875,-0.013422818791946308,0.0,-0.04081632653061224,-0.04964539007092199,-0.06716417910447761,-0.32666666666666666,"Pembangunan, penjualan dan pemeliharaan jaringan telekomunikasi kabel serat optik","Gedung Meta Epsi Lantai 2 Jl. Mayjend D.I. Panjaitan Kav. 2, Jakarta Timur",https://www.triasmitra.com/,4.262.000 Lot,15%,AH - SHINHAN SEKURITAS INDONESIA,AH - SHINHAN SEKURITAS INDONESIA,2022-10-20,2022-10-26,246,360,2022-11-02,2022-11-08,2022-11-08,2022-11-09,10 Nov 2022,0.0,
Closed,PDPP,PT Primadaya Plastisindo Tbk,Utilities,Containers & Packaging,Pengembangan,Rp 200,0.09624061584472657,-0.0666666898653283,-0.06349204573798528,-0.06779658992647657,0.05454541572124873,-0.060344840852683185,-0.018348640459946473,1.8,Industri Barang Dari Plastik Untuk Pengemasan,"Jl. Raya Narogong KM. 18 Cileungsi Bogor, Jawa Barat 16829",https://www.pt-pdp.com,5.000.000 Lot,20%,MG - SEMESTA INDOVEST SEKURITAS,MG - SEMESTA INDOVEST SEKURITAS,2022-10-13,2022-10-20,195,200,2022-11-03,2022-11-07,2022-11-07,2022-11-08,09 Nov 2022,0.0,
Closed,KDTN,PT Puri Sentul Permai Tbk,Energy,"Hotels, Resorts & Cruise Lines",Pengembangan,Rp 150,0.26,-0.06878306878306878,-0.06818181818181818,0.006097560975609756,-0.030303030303030304,-0.04375,0.0,-0.18,"Bergerak dibidang jasa penyedia akomodasi berupa hotel, jasa penyediaan makan minum berupa restoran","Jl. Surya Raya, Kav. Commercial Area 1 Olympic CBD Sentul, Desa Sentul Kecamatan Babakan Madang, Kabupaten Bogor 16810",https://kedaton8.com/,2.500.000 Lot,20%,MI - VICTORIA SEKURITAS INDONESIA,MI - VICTORIA SEKURITAS INDONESIA,2022-10-20,2022-10-26,140,160,2022-11-01,2022-11-07,2022-11-07,2022-11-08,09 Nov 2022,0.2,Rp 180
Closed,MKTR,PT Menthobi Karyatama Raya Tbk,Consumer Staples,Plantations & Crops,Utama,Rp 120,0.08333333333333333,-0.023076923076923078,-0.023622047244094488,0.016129032258064516,0.03968253968253968,0.015267175572519083,-0.015037593984962405,-0.008333333333333333,Bergerak dalam bidang perkebunan dan pabrik kelapa sawit,"Gedung Wisma Maktour Lt.4, Jalan Otto Iskandardinata No. 80 Jakarta Timur 13330",https://mktr.co.id/,25.000.000 Lot,20.83%,II - DANATAMA MAKMUR SEKURITAS,II - DANATAMA MAKMUR SEKURITASAN - WANTEG SEKURITASCP - KB VALBURY SEKURITAS,2022-10-17,2022-10-24,100,150,2022-11-01,2022-11-04,2022-11-04,2022-11-07,08 Nov 2022,1.0,Rp 150
Closed,OMED,PT Jayamas Medica Industri Tbk,Healthcare,Healthcare Supplies & Distributions,Utama,Rp 204,0.23529411764705882,0.0,-0.023809523809523808,0.024390243902439025,0.023809523809523808,0.023255813953488372,-0.007575757575757576,-0.14215686274509803,Bergerak di bidang usaha manufaktur alat kesehatan dan perbekalan kesehatan rumah tangga lainnya,"Sebelah Selatan Jalan By Pass RT 05 / RW 01 Kelurahan Sidomojo, Kecamatan Krian, Sidoarjo 61262, Jawa Timur",https://www.onemed.co.id,40.588.500 Lot,15%,KI - CIPTADANA SEKURITAS ASIA,KI - CIPTADANA SEKURITAS ASIAC3 - PT CIMB Niaga SekuritasKZ - CLSA SEKURITAS INDONESIA,2022-10-06,2022-10-19,204,310,2022-11-02,2022-11-04,2022-11-04,2022-11-07,08 Nov 2022,0.0,
Closed,BELI,PT Global Digital Niaga Tbk,Telecom,Online Applications & Services,Ekonomi Baru,Rp 450,0.0,0.013333333333333334,-0.013157894736842105,0.07555555555555556,-0.02066115702479339,-0.004219409282700422,0.03389830508474576,0.0,"Perdagangan eceran melalui media untuk barang campuran, aktivitas pengembangan aplikasi perdagangan","Jl. Jendral Ahmad Yani No. 34, Kel. Panjunan, Kec. Kota Kudus, Kab. Kudus 59317, Jawa Tengah",https://www.blibli.com,177.712.059 Lot,15%,OD - BRI DANAREKSA SEKURITAS,OD - BRI DANAREKSA SEKURITASS0 - PT Morgan Stanley Sekuritas IndonesiaSQ - BCA SEKURITASCS - CREDIT SUISSE SEKURITAS INDONESIANI - BNI SEKURITASDP - DBS VICKERS SEKURITAS INDONESIARS - YULIE SEKURITAS INDONESIA TBK.CC - MANDIRI SEKURITASPF - DANASAKTI SEKURITAS INDONESIAPD - INDO PREMIER SEKURITASCP - KB VALBURY SEKURITAS,2022-10-17,2022-10-24,410,460,2022-11-02,2022-11-04,2022-11-04,2022-11-07,08 Nov 2022,0.0,
Closed,CBUT,PT Citra Borneo Utama Tbk,Consumer Staples,Plantations & Crops,Utama,Rp 690,0.2463768115942029,0.08139534883720931,-0.010752688172043012,-0.06521739130434782,-0.029069767441860465,-0.03592814371257485,-0.006211180124223602,0.8405797101449275,"bidang industri pemurnian, pemisahan/fraksinasi dan perdagangan produk kelapa sawit dan turunannya","Jalan Haji Udan Said No.47, Kabupaten Kotawaringin Barat, Pangkalan Bun, 74115",http://www.citraborneoutama.co.id/,6.250.000 Lot,20%,YP - MIRAE ASSET SEKURITAS INDONESIA,YP - MIRAE ASSET SEKURITAS INDONESIAAI - KAY HIAN SEKURITASZP - MAYBANK SEKURITAS INDONESIAOD - BRI DANAREKSA SEKURITAS,2022-10-13,2022-10-19,690,1280,2022-11-02,2022-11-04,2022-11-04,2022-11-07,08 Nov 2022,0.0,
Closed,PRAY,PT Famon Awal Bros Sedaya Tbk,Healthcare,Healthcare Providers,Pengembangan,Rp 900,-0.011111111111111112,-0.05056179775280899,-0.0650887573964497,-0.06962025316455696,0.027210884353741496,0.013245033112582781,-0.013071895424836602,-0.3111111111111111,Bergerak di bidang aktivitas perusahaan holding dan jasa pelayanan kesehatan melalui Perusahaan Anak,"Ruko Mega Grosir Cempaka Mas Blok N/21 Sumur Batu, Kemayoran, Jakarta",https://primayahospital.com/,3.022.223 Lot,2.17%,PD - INDO PREMIER SEKURITAS,PD - INDO PREMIER SEKURITAS,2022-10-14,2022-10-21,900,950,2022-11-01,2022-11-04,2022-11-04,2022-11-07,08 Nov 2022,0.0,
Closed,BSBK,PT Wulandari Bangun Laksana Tbk,Technology,Real Estate Development & Management,Utama,Rp 100,0.35,0.34814814814814815,0.32967032967032966,0.19834710743801653,-0.06896551724137931,-0.06666666666666667,-0.06349206349206349,-0.41,Bergerak dalam bidang property dan real estate,"Jl. Jend. Sudirman Nomor 47 Tower G Komplek Balikpapan Superblock Stall Kuda, Kelurahan Damai Bahagia, Kec. Balikpapan Selatan, Kota Balikpapan, Provinsi Kalimantan Timur, 76114",https://www.balikpapansuperblock.com,27.500.000 Lot,12.09%,SH - ARTHA SEKURITAS INDONESIA,SH - ARTHA SEKURITAS INDONESIAHD - KGI SEKURITAS INDONESIAPG - PANCA GLOBAL SEKURITASFS - YUANTA SEKURITAS INDONESIA,2022-10-10,2022-10-17,100,120,2022-11-02,2022-11-04,2022-11-04,2022-11-07,08 Nov 2022,1.37,Rp 125
Closed,COAL,PT Black Diamond Resources Tbk,Financials,Coal Production,Pemantauan Khusus,Rp 100,0.35,0.34814814814814815,0.34065934065934067,0.2459016393442623,0.25,0.23684210526315788,-0.06808510638297872,-0.67,Pertambangan Batubara Melalui Entitas Anak,"Gedung Centennial Tower Lt 21 Unit H , Jl. Jenderal Gatot Subroto No. 24-25, Jakarta Selatan 12930",https://blackdiamondtbk.com/,12.500.000 Lot,20%,SF - SURYA FAJAR SEKURITAS,SF - SURYA FAJAR SEKURITAS,2022-08-12,2022-08-22,100,130,2022-09-01,2022-09-05,2022-09-05,2022-09-06,07 Sep 2022,0.0,
Closed,MEDS,PT Hetzer Medical Indonesia Tbk,Healthcare,Healthcare Supplies & Distributions,Pengembangan,Rp 125,0.344,0.10714285714285714,0.03225806451612903,0.34375,0.10077519379844961,0.20422535211267606,0.24561403508771928,-0.6,Industri Peralatan Kesehatan dan Turunannya,"Jl. Mahar Martanegara No. 106, Kel. Cigugur Tengah Kec. Cimahi Tengah, Kota Cimahi, Provinsi Jawa Barat 40522",https://www.evoplusmed.com,3.125.000 Lot,20%,AN - WANTEG SEKURITAS,AN - WANTEG SEKURITAS,2022-07-21,2022-07-26,125,175,2022-08-02,2022-08-08,2022-08-08,2022-08-09,10 Aug 2022,0.0,
Closed,CRAB,PT Toba Surimi Industries Tbk,Consumer Staples,Processed Foods,Pengembangan,Rp 150,0.3466666666666667,0.0594059405940594,0.0,0.009345794392523364,0.08333333333333333,0.1623931623931624,0.14705882352941177,0.72,"Industri Pembekuan, Pengolahan, Pengawetan, Perdagangan Besar Makanan &Minuman serta Hasil Perikanan","Jl. Pulau Pinang 2, Kawasan Industri Medan II Saentis Deli Serdang, 20371 Sumatera Utara, Indonesia",https://www.tobasurimi.com/,3.900.000 Lot,20%,HD - KGI SEKURITAS INDONESIA,HD - KGI SEKURITAS INDONESIA,2022-07-20,2022-07-25,100,150,2022-08-02,2022-08-08,2022-08-08,2022-08-09,10 Aug 2022,0.0,
Closed,KLIN,PT Klinko Karya Imaji Tbk,Energy,Home Improvement Retail,Akselerasi,Rp 100,-0.1,-0.1,-0.037037037037037035,-0.01282051282051282,-0.03896103896103896,-0.013513513513513514,0.0136986301369863,-0.67,Bergerak di Bidang Produksi dan Perdagangan Produk Alat-Alat Kebersihan yang Ramah Lingkungan,"Jl. Raya Driyorejo Km 25, Desa/Kelurahan Driyorejo, Kec. Driyorejo, Kab. Gresik, Jawa Timur 61177, Indonesia",https://www.klinko.id/,2.300.000 Lot,17.59%,SA - ELIT SUKSES SEKURITAS,SA - ELIT SUKSES SEKURITAS,2022-07-20,2022-07-25,90,100,2022-08-02,2022-08-05,2022-08-05,2022-08-08,09 Aug 2022,0.25,Rp 100
Closed,TOOL,PT Rohartindo Nusantara Luas Tbk,Energy,Household Appliances,Pengembangan,Rp 127,0.3464566929133858,-0.06432748538011696,-0.06875,-0.06711409395973154,-0.007194244604316547,-0.014492753623188406,0.0,-0.5748031496062992,bergerak dalam bidang usaha Perdagangan besar,"Jalan Raya Perancis, Pergudangan Kosambi Permai, Blok J No. 32, Kabupaten Tangerang, Provinsi Banten",http://www.nankai.co.id/,4.100.000 Lot,20%,YP - MIRAE ASSET SEKURITAS INDONESIA,YP - MIRAE ASSET SEKURITAS INDONESIA,2022-07-19,2022-07-26,122,135,2022-08-02,2022-08-05,2022-08-05,2022-08-08,09 Aug 2022,0.5,Rp 500
Closed,BUAH,PT Segar Kumala Indonesia Tbk,Consumer Staples,Food Retail & Distributors,Pengembangan,Rp 388,0.24742268041237114,-0.01652892561983471,-0.058823529411764705,0.022321428571428572,0.017467248908296942,-0.008583690987124463,0.13636363636363635,2.6469072164948453,Bergerak di bidang Perdagangan Besar Buah-buahan dan Daging Unggas Beku,"Jl. Pegangsaan Dua KM. 4 No.89. Pegangsaan Dua, Kelapa Gading, Jakarta Utara. 14250",https://sk-indonesia.com/,2.000.000 Lot,20%,LS - RELIANCE SEKURITAS INDONESIA TBK.,LS - RELIANCE SEKURITAS INDONESIA TBK.,2022-07-20,2022-07-26,350,400,2022-08-02,2022-08-05,2022-08-05,2022-08-08,09 Aug 2022,0.0,
Closed,KKES,PT Kusuma Kemindo Sentosa Tbk,Utilities,Basic Chemicals,Pemantauan Khusus,Rp 105,0.20952380952380953,-0.06299212598425197,-0.025210084033613446,0.02586206896551724,0.0,0.025210084033613446,0.040983606557377046,-0.7523809523809524,Perdagangan Besar Bahan dan Barang Kimia,"Green Ville Maisonette Blok FA / 12A, Jakarta Barat, DKI Jakarta, 11510 - Indonesia",https://kks-chemicals.com,3.000.000 Lot,20%,YP - MIRAE ASSET SEKURITAS INDONESIA,YP - MIRAE ASSET SEKURITAS INDONESIA,2022-07-19,2022-07-27,100,130,2022-08-02,2022-08-04,2022-08-04,2022-08-05,08 Aug 2022,0.0,
Closed,MORA,PT Mora Telematika Indonesia Tbk,Materials,Wired Telecommunication Service,,Rp 396,0.2474747474747475,0.24493927125506074,-0.06504065040650407,0.02608695652173913,-0.01694915254237288,-0.017241379310344827,-0.008771929824561403,0.1111111111111111,"Aktivitas telekomunikasi dengan kabel, internet service provider & jasa interkoneksi internet (NAP)","Grha 9, Lantai 6, Jl. Panataran No. 9, Proklamasi, Jakarta 10320 Indonesia",https://www.moratelindo.co.id,25.254.643 Lot,10.68%,AZ - SUCOR SEKURITAS,AZ - SUCOR SEKURITASNI - BNI SEKURITAS,2022-07-12,2022-07-18,368,396,2022-08-02,2022-08-04,2022-08-04,2022-08-05,08 Aug 2022,0.0,
Closed,EURO,PT Estee Gold Feet Tbk,Consumer Staples,Personal Care Products,Akselerasi,Rp 70,0.0,-0.014285714285714285,0.014492753623188406,0.0,0.0,0.0,0.0,2.4571428571428573,Industri pengisian jasa aerosol kosmetik dan bahan pembersih keperluan rumah tangga,"Jl. Kapuk Utara II No.2, RT.1/RW.3, Kapuk Muara, Penjaringan Jakarta Utara, 14460, Indonesia",https://esteegoldaerosol.com/,5.000.000 Lot,20%,II - DANATAMA MAKMUR SEKURITAS,II - DANATAMA MAKMUR SEKURITAS,2022-07-20,2022-07-28,60,70,2022-08-01,2022-08-04,2022-08-04,2022-08-05,08 Aug 2022,0.1,Rp 100
Closed,ELPI,PT Pelayaran Nasional Ekalya Purnamasari Tbk,Real Estate,Logistics & Deliveries,Utama,Rp 200,0.35,0.24444444444444444,-0.06547619047619048,-0.06369426751592357,-0.06802721088435375,-0.014598540145985401,0.022222222222222223,0.92,Bergerak dalam bidang angkutan laut dan aktivitas penunjang angkutan,"Graha KCT Lt. 3 Jl. W.R. Supratman No.23 Surabaya, Jawa Timur- Indonesia",https://www.pnep.co.id,11.120.000 Lot,15%,LG - TRIMEGAH SEKURITAS INDONESIA TBK.,LG - TRIMEGAH SEKURITAS INDONESIA TBK.,2022-07-14,2022-07-21,190,240,2022-08-02,2022-08-04,2022-08-04,2022-08-05,08 Aug 2022,0.0,
Closed,RAFI,PT Sari Kreasi Boga Tbk,Consumer Staples,Food Retail & Distributors,Pemantauan Khusus,Rp 126,0.3492063492063492,-0.06470588235294118,-0.050314465408805034,0.11258278145695365,0.041666666666666664,0.09714285714285714,0.34375,-0.7936507936507936,Perseroan bergerak di bidang penjualan bahan baku dan waralaba makanan dan minuman.,"Tower A lt.3, Jl. Ampera Raya RW2, Ragunan, Kec. Ps. Minggu, Kota Jakarta Selatan, Daerah Khusus Ibukota Jakarta 12540",https://skbfood.id/,9.480.900 Lot,30.31%,IN - INVESTINDO NUSANTARA SEKURITAS,IN - INVESTINDO NUSANTARA SEKURITASCP - KB VALBURY SEKURITAS,2022-07-18,2022-07-22,120,130,2022-08-01,2022-08-03,2022-08-03,2022-08-04,05 Aug 2022,0.5,Rp 158
Closed,AMMS,PT Agung Menjangan Mas Tbk,Consumer Staples,"Fish, Meat, & Poultry",Akselerasi,Rp 100,0.05,-0.05714285714285714,-0.04040404040404041,0.06315789473684211,0.06930693069306931,0.07407407407407407,-0.09482758620689655,-0.75,Menjalankan usaha dalam bidang jasa sarana produksi dan jasa pasca panen budidaya ikan air payau,"Generali Tower Grand Rubina Business Park Lt.20 C Jl. H.R. Rasuna Said, Kuningan, Jakarta Selatan 12940",https://agungmm.com/,2.400.000 Lot,20%,IU - INDO CAPITAL SEKURITAS,IU - INDO CAPITAL SEKURITAS,2022-07-07,2022-07-13,100,150,2022-07-29,2022-08-02,2022-08-02,2022-08-03,04 Aug 2022,1.4,Rp 100
Closed,JARR,PT Jhonlin Agro Raya Tbk,Consumer Staples,Plantations & Crops,Utama,Rp 300,0.24666666666666667,0.24598930481283424,0.2446351931330472,-0.06896551724137931,-0.06481481481481481,-0.06930693069306931,-0.06808510638297872,-0.11333333333333333,Perkebunan dan Pengolahan Minyak Kelapa Sawit Terpadu,"Kantor: Jl. Kodeco KM 1, Kel. Gunung Antasari, Kec. Simpang Empat, Kab. Tanah Bumbu, Kalimatan Selatan 72213 Operasional: Pabrik Refinery dan Pabrik Biodiesel di Desa Batu Ampar, Kec. Simpang Empat, Kab. Tanah Bumbu, Kalimantan Selatan",https://www.ptjar.com,12.229.500 Lot,15.29%,IN - INVESTINDO NUSANTARA SEKURITAS,IN - INVESTINDO NUSANTARA SEKURITASPG - PANCA GLOBAL SEKURITASYJ - LOTUS ANDALAN SEKURITASAR - BINAARTHA SEKURITAS,2022-07-12,2022-07-15,250,300,2022-07-29,2022-08-02,2022-08-02,2022-08-03,04 Aug 2022,0.0,
Closed,GULA,PT Aman Agrindo Tbk,Consumer Staples,Processed Foods,Pengembangan,Rp 250,0.016,-0.06299212598425197,-0.03361344537815126,0.043478260869565216,-0.05,-0.008771929824561403,-0.05309734513274336,0.784,"Bergerak di bidang perkebunan tebu, perdagangan gula dan industri gula","Jl.MT. Haryono 864-866 Ruko Bangkong Plaza C-10, Kelurahan Peterongan, Kecamatan Semarang Selatan, Kota Semarang, Provinsi Jawa Tengah, 50242",https://www.amanagrindo.co.id/,2.140.725 Lot,20%,AI - KAY HIAN SEKURITAS,AI - KAY HIAN SEKURITAS,2022-06-23,2022-07-15,250,300,2022-07-28,2022-08-01,2022-08-01,2022-08-02,03 Aug 2022,0.0,
Closed,RCCC,PT Utama Radar Cahaya Tbk,Real Estate,Logistics & Deliveries,Akselerasi,Rp 135,-0.13932981137876158,0.024590201609816013,0.015999938476564377,0.023622083998014316,0.09999998767559352,0.08391610036951933,0.07741936884313405,0.7925925925925926,Bergerak di Bidang Jasa Pengurusan Transportasi (Freight Forwarding),"Kantor Pusat: Gedung STC Senayan, Lantai 2, Ruang 38, Jl. Asia Afrika Pintu IX, Gelora, Tanah Abang Jakarta Pusat 10270, Indonesia Garasi dan Bengkel: Jl. Curug Dengdeng, Desa Lulut, Kec. Klapanunggal, Cileungsi, Kab. Bogor, Jawa Barat, Indonesia",https://www.utamaradarcahaya.com,1.500.000 Lot,20%,SA - ELIT SUKSES SEKURITAS,SA - ELIT SUKSES SEKURITAS,2022-07-08,2022-07-12,110,150,2022-07-27,2022-07-29,2022-07-29,2022-08-01,02 Aug 2022,0.0,
Closed,HATM,PT HABCO TRANS MARITIMA TBK,Real Estate,Logistics & Deliveries,Utama,Rp 160,0.01875,0.0736196319018405,0.09714285714285714,-0.026041666666666668,0.0053475935828877,0.03723404255319149,0.035897435897435895,0.6875,Pengangkutan dengan Kegiatan Usaha Angkutan Laut Dalam Negeri untuk Barang Khusus,"Jalan H. Imam Munandar No. 247 F-G, Kel Tangkerang Utara, Kec Bukit Raya, Pekanbaru, Riau 28282",https://habcomaritima.com/,11.187.500 Lot,16.65%,XA - NH KORINDO SEKURITAS INDONESIA,XA - NH KORINDO SEKURITAS INDONESIA,2022-06-29,2022-07-01,150,250,2022-07-20,2022-07-22,2022-07-22,2022-07-25,26 Jul 2022,0.0,
Closed,KRYA,PT Bangun Karya Perkasa Jaya Tbk.,Materials,Heavy Constructions & Civil Engineering,Pengembangan,Rp 125,-0.128,-0.06422018348623854,0.049019607843137254,-0.04672897196261682,-0.0196078431372549,-0.05,-0.031578947368421054,-0.544,Bergerak dalam bidang konstruksi umum dan konstruksi baja,"Jl. Pattimura Plaza Segi Delapan C 851-852, Sonokwijenan, Sukomanunggal, Surabaya, Indonesia 60189",https://www.ptbkpjaya.com/,3.250.000 Lot,20%,IU - INDO CAPITAL SEKURITAS,IU - INDO CAPITAL SEKURITAS,2022-06-30,2022-07-06,120,130,2022-07-19,2022-07-21,2022-07-21,2022-07-22,25 Jul 2022,0.5,Rp 156
Closed,AXIO,PT Tera Data Indonusa Tbk.,Telecom,Computer Hardware,Utama,Rp 140,0.35,0.2698412698412698,-0.06666666666666667,-0.0625,0.02857142857142857,0.10185185185185185,-0.01680672268907563,-0.12142857142857143,Perdagangan Besar Komputer dan Perlengkapan Komputer,"Wisma Exa Jl. Inspeksi PAM No.168, Cakung Barat Jakarta Timur 13910",https://www.terra.co.id/,10.401.265 Lot,17.81%,NI - BNI SEKURITAS,NI - BNI SEKURITASC3 - PT CIMB Niaga Sekuritas,2022-06-29,2022-07-05,120,140,2022-07-14,2022-07-18,2022-07-18,2022-07-19,20 Jul 2022,0.0,
Closed,DEWI,PT Dewi Shri Farmindo Tbk,Consumer Staples,"Fish, Meat, & Poultry",Pengembangan,Rp 100,0.35,0.34814814814814815,-0.06593406593406594,-0.06470588235294118,-0.06918238993710692,0.006756756756756757,0.020134228187919462,-0.18,Bergerak di bidang budidaya ayam ras pedaging dan perdagangan eceran hewan ternak,"Kampung Cimenyan, RT 003/RW 003, Desa Cintaasih, Kecamatan Grekbong, Cianjur, Jawa Barat",https://www.dewishrifarmindo.com,7.000.000 Lot,35%,HD - KGI SEKURITAS INDONESIA,HD - KGI SEKURITAS INDONESIAAR - BINAARTHA SEKURITAS,2022-06-27,2022-06-29,100,110,2022-07-12,2022-07-14,2022-07-14,2022-07-15,18 Jul 2022,0.0,
Closed,ARKO,PT Arkora Hydro Tbk,Materials,Electric Utilities,,Rp 300,-0.06666666666666667,0.007142857142857143,0.05673758865248227,0.026845637583892617,0.026143790849673203,0.10828025477707007,-0.005747126436781609,2.25,Pembangkitan tenaga listrik melalui sumber energi baru dan terbarukan yang berasal dari aliran air,"Office 8 Building, Lantai 21 Unit C & D, Jl. Jend. Sudirman Kav. 52-53, Lot 28 SCBD Jakarta 12190, Indonesia",http://www.arkora-hydro.com/,5.799.000 Lot,20%,YP - MIRAE ASSET SEKURITAS INDONESIA,YP - MIRAE ASSET SEKURITAS INDONESIAYJ - LOTUS ANDALAN SEKURITAS,2022-06-20,2022-06-28,286,310,2022-07-04,2022-07-06,2022-07-06,2022-07-07,08 Jul 2022,0.0,
Closed,TRGU,PT Cerestar Indonesia Tbk,Consumer Staples,Processed Foods,Utama,Rp 210,0.24761904761904763,0.24427480916030533,0.24539877300613497,0.2438423645320197,-0.06930693069306931,0.03829787234042553,0.09631147540983606,-0.047619047619047616,Industri Tepung Terigu dan Perdagangan Serealia/Biji-Bijian Melalui Perusahaan Anak dan Jasa Konsult,"The City Tower Lt. 28 Jl. M.H Thamrin No. 81, Menteng Jakarta Pusat 10310 – DKI Jakarta",http://www.cerestargroup.co.id,15.000.000 Lot,18.87%,MG - SEMESTA INDOVEST SEKURITAS,MG - SEMESTA INDOVEST SEKURITAS,2022-06-17,2022-06-23,200,210,2022-07-04,2022-07-06,2022-07-06,2022-07-07,08 Jul 2022,0.0,
Closed,CHEM,PT Chemstar Indonesia Tbk,Utilities,Specialty Chemicals,Pengembangan,Rp 150,0.03333333333333333,-0.06451612903225806,-0.06896551724137931,-0.06666666666666667,-0.007936507936507936,-0.032,0.0,-0.49333333333333335,Perseroan bergerak dalam Industri dan perdagangan bahan kimia spesialisasi untuk industri tekstil,"Jl. Industri Ubrug No. 70, Kp. Cisampih, Kel. Cibinong, Kec. Jatiluhur, Kab. Purwakarta, Jawa Barat 41152",https://www.chemstarindonesia.com,5.000.000 Lot,29.41%,XA - NH KORINDO SEKURITAS INDONESIA,XA - NH KORINDO SEKURITAS INDONESIA,2022-06-20,2022-06-23,150,190,2022-07-04,2022-07-06,2022-07-06,2022-07-07,08 Jul 2022,0.5,Rp 200
Closed,SWID,PT Saraswanti Indoland Development Tbk,Technology,Real Estate Development & Management,Pengembangan,Rp 200,0.08,-0.06481481481481481,-0.06930693069306931,-0.06914893617021277,-0.06857142857142857,-0.06748466257668712,-0.06578947368421052,-0.615,Bergerak dalam bidang usaha Properti & Real Estate,"Jalan Palagan Tentara Pelajar KM. 7 Sariharjo, Ngaglik, Kab. Sleman, Daerah Istimewa Yogyakarta Indonesia - 55581",https://saraswantiproperty.com/,3.400.000 Lot,6.31%,AH - SHINHAN SEKURITAS INDONESIA,AH - SHINHAN SEKURITAS INDONESIA,2022-06-17,2022-06-23,180,200,2022-07-01,2022-07-05,2022-07-05,2022-07-06,07 Jul 2022,1.0,Rp 250
Closed,ASHA,PT Cilacap Samudera Fishing Industry Tbk,Consumer Staples,Food Retail & Distributors,Pemantauan Khusus,Rp 100,0.35,0.34814814814814815,0.34065934065934067,0.2459016393442623,0.25,-0.06842105263157895,-0.06779661016949153,-0.86,Bergerak Dalam Bidang Perdagangan Besar Hasil Perikanan dan Aktivitas Cold Storage,"Jl. Muara Baru Ujung K No. 7D RT 021 RW 17 Penjaringan Jakarta Utara, Indonesia",https://www.csfi.co.id/,12.500.000 Lot,25%,HD - KGI SEKURITAS INDONESIA,HD - KGI SEKURITAS INDONESIABQ - KOREA INVESTMENT AND SEKURITAS INDONESIA,2022-04-22,2022-04-27,100,125,2022-05-19,2022-05-24,2022-05-24,2022-05-25,27 May 2022,0.0,
